[{"phase":"TASK","trial_num":1,"trial_length":10,"click_num":1,"RT":4356.9000000003725,"action":1,"reward":-3.4},{"phase":"TASK","trial_num":1,"trial_length":10,"click_num":2,"RT":5479.5999999996275,"action":1,"reward":-1.8},{"phase":"TASK","trial_num":1,"trial_length":10,"click_num":3,"RT":14168.099999999627,"action":0,"reward":-1.8},{"phase":"TASK","trial_num":1,"trial_length":10,"click_num":4,"RT":4960,"action":0,"reward":-1.8},{"phase":"TASK","trial_num":1,"trial_length":10,"click_num":5,"RT":5383.9000000003725,"action":0,"reward":-1.8},{"phase":"TASK","trial_num":1,"trial_length":10,"click_num":6,"RT":2839.9000000003725,"action":0,"reward":-1.8},{"phase":"TASK","trial_num":1,"trial_length":10,"click_num":7,"RT":2168.0999999996275,"action":0,"reward":-1.8},{"phase":"TASK","trial_num":1,"trial_length":10,"click_num":8,"RT":1584,"action":0,"reward":-1.8},{"phase":"TASK","trial_num":1,"trial_length":10,"click_num":9,"RT":1264.0999999996275,"action":0,"reward":-1.8},{"phase":"TASK","trial_num":1,"trial_length":10,"click_num":10,"RT":2983.9000000003725,"action":0,"reward":-1.8},{"phase":"TASK","trial_num":2,"trial_length":5,"click_num":1,"RT":3311.2999999988824,"action":1,"reward":-2.3},{"phase":"TASK","trial_num":2,"trial_length":5,"click_num":2,"RT":3527.7000000011176,"action":1,"reward":-2.8},{"phase":"TASK","trial_num":2,"trial_length":5,"click_num":3,"RT":5576.0999999996275,"action":1,"reward":-3.6},{"phase":"TASK","trial_num":2,"trial_length":5,"click_num":4,"RT":5152,"action":1,"reward":-3.1},{"phase":"TASK","trial_num":2,"trial_length":5,"click_num":5,"RT":6192.0999999996275,"action":1,"reward":-3.4},{"phase":"TASK","trial_num":3,"trial_length":6,"click_num":1,"RT":3063.7000000011176,"action":1,"reward":-3.6},{"phase":"TASK","trial_num":3,"trial_length":6,"click_num":2,"RT":3311.9000000003725,"action":1,"reward":-3.5},{"phase":"TASK","trial_num":3,"trial_length":6,"click_num":3,"RT":2776.0999999996275,"action":1,"reward":-2.9},{"phase":"TASK","trial_num":3,"trial_length":6,"click_num":4,"RT":3503.9000000003725,"action":1,"reward":-2.3},{"phase":"TASK","trial_num":3,"trial_length":6,"click_num":5,"RT":2840.0999999996275,"action":0,"reward":-2.3},{"phase":"TASK","trial_num":3,"trial_length":6,"click_num":6,"RT":2184.0999999996275,"action":0,"reward":-2.3},{"phase":"TASK","trial_num":4,"trial_length":9,"click_num":1,"RT":3135.7000000011176,"action":1,"reward":-3.4},{"phase":"TASK","trial_num":4,"trial_length":9,"click_num":2,"RT":2680.0999999996275,"action":1,"reward":-3.3},{"phase":"TASK","trial_num":4,"trial_length":9,"click_num":3,"RT":2311.9000000003725,"action":1,"reward":-3.9},{"phase":"TASK","trial_num":4,"trial_length":9,"click_num":4,"RT":2560,"action":1,"reward":-3.7},{"phase":"TASK","trial_num":4,"trial_length":9,"click_num":5,"RT":3056,"action":1,"reward":-2.9},{"phase":"TASK","trial_num":4,"trial_length":9,"click_num":6,"RT":3872,"action":1,"reward":-3},{"phase":"TASK","trial_num":4,"trial_length":9,"click_num":7,"RT":2623.9000000003725,"action":1,"reward":-4},{"phase":"TASK","trial_num":4,"trial_length":9,"click_num":8,"RT":2784,"action":1,"reward":-3.6},{"phase":"TASK","trial_num":4,"trial_length":9,"click_num":9,"RT":1920,"action":1,"reward":-2.3},{"phase":"TASK","trial_num":5,"trial_length":10,"click_num":1,"RT":1967.800000000745,"action":1,"reward":-3.7},{"phase":"TASK","trial_num":5,"trial_length":10,"click_num":2,"RT":1752,"action":1,"reward":-3.7},{"phase":"TASK","trial_num":5,"trial_length":10,"click_num":3,"RT":1928,"action":1,"reward":-2.9},{"phase":"TASK","trial_num":5,"trial_length":10,"click_num":4,"RT":2936.0999999996275,"action":1,"reward":-3},{"phase":"TASK","trial_num":5,"trial_length":10,"click_num":5,"RT":2543.9000000003725,"action":1,"reward":-3.2},{"phase":"TASK","trial_num":5,"trial_length":10,"click_num":6,"RT":2832,"action":1,"reward":-2.8},{"phase":"TASK","trial_num":5,"trial_length":10,"click_num":7,"RT":2264.0999999996275,"action":0,"reward":-2.8},{"phase":"TASK","trial_num":5,"trial_length":10,"click_num":8,"RT":1503.9000000003725,"action":0,"reward":-2.8},{"phase":"TASK","trial_num":5,"trial_length":10,"click_num":9,"RT":1688.0999999996275,"action":0,"reward":-2.8},{"phase":"TASK","trial_num":5,"trial_length":10,"click_num":10,"RT":1151.9000000003725,"action":0,"reward":-2.8},{"phase":"TASK","trial_num":6,"trial_length":8,"click_num":1,"RT":5063.5999999996275,"action":1,"reward":-2.9},{"phase":"TASK","trial_num":6,"trial_length":8,"click_num":2,"RT":4688,"action":1,"reward":-2.8},{"phase":"TASK","trial_num":6,"trial_length":8,"click_num":3,"RT":5592,"action":1,"reward":-3.4},{"phase":"TASK","trial_num":6,"trial_length":8,"click_num":4,"RT":4672,"action":1,"reward":-3.2},{"phase":"TASK","trial_num":6,"trial_length":8,"click_num":5,"RT":6616.0999999996275,"action":1,"reward":-4},{"phase":"TASK","trial_num":6,"trial_length":8,"click_num":6,"RT":1903.9000000003725,"action":0,"reward":-2.8},{"phase":"TASK","trial_num":6,"trial_length":8,"click_num":7,"RT":2208,"action":0,"reward":-2.8},{"phase":"TASK","trial_num":6,"trial_length":8,"click_num":8,"RT":1312.199999999255,"action":0,"reward":-2.8},{"phase":"TASK","trial_num":7,"trial_length":10,"click_num":1,"RT":1759.6000000014901,"action":1,"reward":-3.1},{"phase":"TASK","trial_num":7,"trial_length":10,"click_num":2,"RT":1648.0999999996275,"action":1,"reward":-3.6},{"phase":"TASK","trial_num":7,"trial_length":10,"click_num":3,"RT":1360.4000000003725,"action":1,"reward":-2.1},{"phase":"TASK","trial_num":7,"trial_length":10,"click_num":4,"RT":1640.5,"action":0,"reward":-2.1},{"phase":"TASK","trial_num":7,"trial_length":10,"click_num":5,"RT":951,"action":0,"reward":-2.1},{"phase":"TASK","trial_num":7,"trial_length":10,"click_num":6,"RT":848.0999999996275,"action":0,"reward":-2.1},{"phase":"TASK","trial_num":7,"trial_length":10,"click_num":7,"RT":783.9000000003725,"action":0,"reward":-2.1},{"phase":"TASK","trial_num":7,"trial_length":10,"click_num":8,"RT":976.1999999992549,"action":0,"reward":-2.1},{"phase":"TASK","trial_num":7,"trial_length":10,"click_num":9,"RT":823.9000000003725,"action":0,"reward":-2.1},{"phase":"TASK","trial_num":7,"trial_length":10,"click_num":10,"RT":976,"action":0,"reward":-2.1},{"phase":"TASK","trial_num":8,"trial_length":10,"click_num":1,"RT":2423.800000000745,"action":1,"reward":-2.5},{"phase":"TASK","trial_num":8,"trial_length":10,"click_num":2,"RT":2519.9000000003725,"action":1,"reward":-3},{"phase":"TASK","trial_num":8,"trial_length":10,"click_num":3,"RT":2695.9000000003725,"action":0,"reward":-2.5},{"phase":"TASK","trial_num":8,"trial_length":10,"click_num":4,"RT":2632,"action":0,"reward":-2.5},{"phase":"TASK","trial_num":8,"trial_length":10,"click_num":5,"RT":2360.0999999996275,"action":1,"reward":-2.9},{"phase":"TASK","trial_num":8,"trial_length":10,"click_num":6,"RT":2520,"action":0,"reward":-2.5},{"phase":"TASK","trial_num":8,"trial_length":10,"click_num":7,"RT":3287.9000000003725,"action":1,"reward":-2.3},{"phase":"TASK","trial_num":8,"trial_length":10,"click_num":8,"RT":1968.0999999996275,"action":0,"reward":-2.3},{"phase":"TASK","trial_num":8,"trial_length":10,"click_num":9,"RT":1655.9000000003725,"action":0,"reward":-2.3},{"phase":"TASK","trial_num":8,"trial_length":10,"click_num":10,"RT":1320,"action":0,"reward":-2.3},{"phase":"TASK","trial_num":9,"trial_length":6,"click_num":1,"RT":1999.7000000011176,"action":1,"reward":-3.6},{"phase":"TASK","trial_num":9,"trial_length":6,"click_num":2,"RT":2224.0999999996275,"action":1,"reward":-3},{"phase":"TASK","trial_num":9,"trial_length":6,"click_num":3,"RT":2031.9000000003725,"action":1,"reward":-2.3},{"phase":"TASK","trial_num":9,"trial_length":6,"click_num":4,"RT":1456,"action":0,"reward":-2.3},{"phase":"TASK","trial_num":9,"trial_length":6,"click_num":5,"RT":952.1999999992549,"action":0,"reward":-2.3},{"phase":"TASK","trial_num":9,"trial_length":6,"click_num":6,"RT":951.8000000007451,"action":0,"reward":-2.3},{"phase":"TASK","trial_num":10,"trial_length":8,"click_num":1,"RT":2423.800000000745,"action":1,"reward":-3.7},{"phase":"TASK","trial_num":10,"trial_length":8,"click_num":2,"RT":1808,"action":1,"reward":-2.8},{"phase":"TASK","trial_num":10,"trial_length":8,"click_num":3,"RT":1864,"action":1,"reward":-2.4},{"phase":"TASK","trial_num":10,"trial_length":8,"click_num":4,"RT":5079.9000000003725,"action":1,"reward":-3.4},{"phase":"TASK","trial_num":10,"trial_length":8,"click_num":5,"RT":1632.0999999996275,"action":0,"reward":-2.4},{"phase":"TASK","trial_num":10,"trial_length":8,"click_num":6,"RT":1352,"action":0,"reward":-2.4},{"phase":"TASK","trial_num":10,"trial_length":8,"click_num":7,"RT":1152,"action":0,"reward":-2.4},{"phase":"TASK","trial_num":10,"trial_length":8,"click_num":8,"RT":968.0999999996275,"action":0,"reward":-2.4},{"phase":"TASK","trial_num":11,"trial_length":6,"click_num":1,"RT":1863.800000000745,"action":1,"reward":-4.2},{"phase":"TASK","trial_num":11,"trial_length":6,"click_num":2,"RT":1896,"action":1,"reward":-3.8},{"phase":"TASK","trial_num":11,"trial_length":6,"click_num":3,"RT":2728.0999999996275,"action":1,"reward":-2},{"phase":"TASK","trial_num":11,"trial_length":6,"click_num":4,"RT":1808,"action":0,"reward":-2},{"phase":"TASK","trial_num":11,"trial_length":6,"click_num":5,"RT":855.8000000007451,"action":0,"reward":-2},{"phase":"TASK","trial_num":11,"trial_length":6,"click_num":6,"RT":888,"action":0,"reward":-2},{"phase":"TASK","trial_num":12,"trial_length":7,"click_num":1,"RT":1815.6000000014901,"action":1,"reward":-2.8},{"phase":"TASK","trial_num":12,"trial_length":7,"click_num":2,"RT":2032.0999999996275,"action":1,"reward":-3.7},{"phase":"TASK","trial_num":12,"trial_length":7,"click_num":3,"RT":1744,"action":1,"reward":-2},{"phase":"TASK","trial_num":12,"trial_length":7,"click_num":4,"RT":1463.9000000003725,"action":0,"reward":-2},{"phase":"TASK","trial_num":12,"trial_length":7,"click_num":5,"RT":960,"action":0,"reward":-2},{"phase":"TASK","trial_num":12,"trial_length":7,"click_num":6,"RT":744.0999999996275,"action":0,"reward":-2},{"phase":"TASK","trial_num":12,"trial_length":7,"click_num":7,"RT":800.0999999996275,"action":0,"reward":-2},{"phase":"TASK","trial_num":13,"trial_length":10,"click_num":1,"RT":3911.699999999255,"action":1,"reward":-2.3},{"phase":"TASK","trial_num":13,"trial_length":10,"click_num":2,"RT":1815.9000000003725,"action":1,"reward":-3.2},{"phase":"TASK","trial_num":13,"trial_length":10,"click_num":3,"RT":1263.9000000003725,"action":1,"reward":-2.9},{"phase":"TASK","trial_num":13,"trial_length":10,"click_num":4,"RT":1184,"action":0,"reward":-2.3},{"phase":"TASK","trial_num":13,"trial_length":10,"click_num":5,"RT":672.0999999996275,"action":0,"reward":-2.3},{"phase":"TASK","trial_num":13,"trial_length":10,"click_num":6,"RT":600,"action":0,"reward":-2.3},{"phase":"TASK","trial_num":13,"trial_length":10,"click_num":7,"RT":584,"action":0,"reward":-2.3},{"phase":"TASK","trial_num":13,"trial_length":10,"click_num":8,"RT":671.9000000003725,"action":0,"reward":-2.3},{"phase":"TASK","trial_num":13,"trial_length":10,"click_num":9,"RT":632,"action":0,"reward":-2.3},{"phase":"TASK","trial_num":13,"trial_length":10,"click_num":10,"RT":656.0999999996275,"action":0,"reward":-2.3},{"phase":"TASK","trial_num":14,"trial_length":5,"click_num":1,"RT":1599.5999999996275,"action":1,"reward":-2.7},{"phase":"TASK","trial_num":14,"trial_length":5,"click_num":2,"RT":2376,"action":1,"reward":-2.6},{"phase":"TASK","trial_num":14,"trial_length":5,"click_num":3,"RT":2432,"action":1,"reward":-2.2},{"phase":"TASK","trial_num":14,"trial_length":5,"click_num":4,"RT":1399.9000000003725,"action":0,"reward":-2.2},{"phase":"TASK","trial_num":14,"trial_length":5,"click_num":5,"RT":1192,"action":0,"reward":-2.2},{"phase":"TASK","trial_num":15,"trial_length":5,"click_num":1,"RT":1479.7000000011176,"action":1,"reward":-3.7},{"phase":"TASK","trial_num":15,"trial_length":5,"click_num":2,"RT":5992,"action":1,"reward":-2.7},{"phase":"TASK","trial_num":15,"trial_length":5,"click_num":3,"RT":1959.9000000003725,"action":1,"reward":-1.7},{"phase":"TASK","trial_num":15,"trial_length":5,"click_num":4,"RT":1640,"action":0,"reward":-1.7},{"phase":"TASK","trial_num":15,"trial_length":5,"click_num":5,"RT":840.2999999988824,"action":0,"reward":-1.7},{"phase":"TASK","trial_num":16,"trial_length":7,"click_num":1,"RT":1519.800000000745,"action":1,"reward":-3},{"phase":"TASK","trial_num":16,"trial_length":7,"click_num":2,"RT":2815.9000000003725,"action":1,"reward":-3.4},{"phase":"TASK","trial_num":16,"trial_length":7,"click_num":3,"RT":2984,"action":1,"reward":-3},{"phase":"TASK","trial_num":16,"trial_length":7,"click_num":4,"RT":2304.0999999996275,"action":1,"reward":-2.3},{"phase":"TASK","trial_num":16,"trial_length":7,"click_num":5,"RT":3296,"action":0,"reward":-2.3},{"phase":"TASK","trial_num":16,"trial_length":7,"click_num":6,"RT":1343.9000000003725,"action":0,"reward":-2.3},{"phase":"TASK","trial_num":16,"trial_length":7,"click_num":7,"RT":936.0999999996275,"action":0,"reward":-2.3},{"phase":"TASK","trial_num":17,"trial_length":6,"click_num":1,"RT":5271.800000000745,"action":1,"reward":-3.1},{"phase":"TASK","trial_num":17,"trial_length":6,"click_num":2,"RT":2135.9000000003725,"action":1,"reward":-4.3},{"phase":"TASK","trial_num":17,"trial_length":6,"click_num":3,"RT":2040.0999999996275,"action":1,"reward":-2.9},{"phase":"TASK","trial_num":17,"trial_length":6,"click_num":4,"RT":3159.9000000003725,"action":1,"reward":-2.5},{"phase":"TASK","trial_num":17,"trial_length":6,"click_num":5,"RT":2280.0999999996275,"action":0,"reward":-2.5},{"phase":"TASK","trial_num":17,"trial_length":6,"click_num":6,"RT":855.9000000003725,"action":0,"reward":-2.5},{"phase":"TASK","trial_num":18,"trial_length":9,"click_num":1,"RT":1751.800000000745,"action":1,"reward":-3.3},{"phase":"TASK","trial_num":18,"trial_length":9,"click_num":2,"RT":1400,"action":1,"reward":-3.3},{"phase":"TASK","trial_num":18,"trial_length":9,"click_num":3,"RT":1296,"action":1,"reward":-3.3},{"phase":"TASK","trial_num":18,"trial_length":9,"click_num":4,"RT":1424,"action":1,"reward":-2.6},{"phase":"TASK","trial_num":18,"trial_length":9,"click_num":5,"RT":5479.9000000003725,"action":1,"reward":-3.2},{"phase":"TASK","trial_num":18,"trial_length":9,"click_num":6,"RT":2976.0999999996275,"action":1,"reward":-3},{"phase":"TASK","trial_num":18,"trial_length":9,"click_num":7,"RT":3928,"action":1,"reward":-2.7},{"phase":"TASK","trial_num":18,"trial_length":9,"click_num":8,"RT":1744,"action":0,"reward":-2.6},{"phase":"TASK","trial_num":18,"trial_length":9,"click_num":9,"RT":1136.5,"action":0,"reward":-2.6},{"phase":"TASK","trial_num":19,"trial_length":5,"click_num":1,"RT":3319.7000000011176,"action":1,"reward":-4.6},{"phase":"TASK","trial_num":19,"trial_length":5,"click_num":2,"RT":2136,"action":1,"reward":-3.1},{"phase":"TASK","trial_num":19,"trial_length":5,"click_num":3,"RT":4399.9000000003725,"action":1,"reward":-2.9},{"phase":"TASK","trial_num":19,"trial_length":5,"click_num":4,"RT":2704.0999999996275,"action":1,"reward":-2},{"phase":"TASK","trial_num":19,"trial_length":5,"click_num":5,"RT":1695.9000000003725,"action":0,"reward":-2},{"phase":"TASK","trial_num":20,"trial_length":5,"click_num":1,"RT":2407.800000000745,"action":1,"reward":-2.7},{"phase":"TASK","trial_num":20,"trial_length":5,"click_num":2,"RT":6367.9000000003725,"action":1,"reward":-2.5},{"phase":"TASK","trial_num":20,"trial_length":5,"click_num":3,"RT":4568.0999999996275,"action":1,"reward":-2.9},{"phase":"TASK","trial_num":20,"trial_length":5,"click_num":4,"RT":4656,"action":1,"reward":-4.2},{"phase":"TASK","trial_num":20,"trial_length":5,"click_num":5,"RT":1527.800000000745,"action":0,"reward":-2.5},{"phase":"TASK","trial_num":21,"trial_length":8,"click_num":1,"RT":1911.5999999996275,"action":1,"reward":-3.1},{"phase":"TASK","trial_num":21,"trial_length":8,"click_num":2,"RT":1680,"action":1,"reward":-2.6},{"phase":"TASK","trial_num":21,"trial_length":8,"click_num":3,"RT":3392,"action":1,"reward":-2.4},{"phase":"TASK","trial_num":21,"trial_length":8,"click_num":4,"RT":1944,"action":0,"reward":-2.4},{"phase":"TASK","trial_num":21,"trial_length":8,"click_num":5,"RT":1023.9000000003725,"action":0,"reward":-2.4},{"phase":"TASK","trial_num":21,"trial_length":8,"click_num":6,"RT":928.0999999996275,"action":0,"reward":-2.4},{"phase":"TASK","trial_num":21,"trial_length":8,"click_num":7,"RT":792,"action":0,"reward":-2.4},{"phase":"TASK","trial_num":21,"trial_length":8,"click_num":8,"RT":712,"action":0,"reward":-2.4},{"phase":"TASK","trial_num":22,"trial_length":8,"click_num":1,"RT":1607.7000000011176,"action":1,"reward":-2.6},{"phase":"TASK","trial_num":22,"trial_length":8,"click_num":2,"RT":2016.0999999996275,"action":1,"reward":-2.2},{"phase":"TASK","trial_num":22,"trial_length":8,"click_num":3,"RT":1752,"action":0,"reward":-2.2},{"phase":"TASK","trial_num":22,"trial_length":8,"click_num":4,"RT":872,"action":0,"reward":-2.2},{"phase":"TASK","trial_num":22,"trial_length":8,"click_num":5,"RT":792,"action":0,"reward":-2.2},{"phase":"TASK","trial_num":22,"trial_length":8,"click_num":6,"RT":743.9000000003725,"action":0,"reward":-2.2},{"phase":"TASK","trial_num":22,"trial_length":8,"click_num":7,"RT":768.0999999996275,"action":0,"reward":-2.2},{"phase":"TASK","trial_num":22,"trial_length":8,"click_num":8,"RT":744,"action":0,"reward":-2.2},{"phase":"TASK","trial_num":23,"trial_length":9,"click_num":1,"RT":2871.9000000003725,"action":1,"reward":-3},{"phase":"TASK","trial_num":23,"trial_length":9,"click_num":2,"RT":2223.9000000003725,"action":1,"reward":-2.5},{"phase":"TASK","trial_num":23,"trial_length":9,"click_num":3,"RT":1704.0999999996275,"action":1,"reward":-1.8},{"phase":"TASK","trial_num":23,"trial_length":9,"click_num":4,"RT":1912,"action":0,"reward":-1.8},{"phase":"TASK","trial_num":23,"trial_length":9,"click_num":5,"RT":672,"action":0,"reward":-1.8},{"phase":"TASK","trial_num":23,"trial_length":9,"click_num":6,"RT":735.9000000003725,"action":0,"reward":-1.8},{"phase":"TASK","trial_num":23,"trial_length":9,"click_num":7,"RT":792.0999999996275,"action":0,"reward":-1.8},{"phase":"TASK","trial_num":23,"trial_length":9,"click_num":8,"RT":791.9000000003725,"action":0,"reward":-1.8},{"phase":"TASK","trial_num":23,"trial_length":9,"click_num":9,"RT":912.0999999996275,"action":0,"reward":-1.8},{"phase":"TASK","trial_num":24,"trial_length":5,"click_num":1,"RT":2311.7000000011176,"action":1,"reward":-2.8},{"phase":"TASK","trial_num":24,"trial_length":5,"click_num":2,"RT":10600.099999999627,"action":1,"reward":-2.8},{"phase":"TASK","trial_num":24,"trial_length":5,"click_num":3,"RT":1951.9000000003725,"action":1,"reward":-2.9},{"phase":"TASK","trial_num":24,"trial_length":5,"click_num":4,"RT":2768,"action":1,"reward":-3.8},{"phase":"TASK","trial_num":24,"trial_length":5,"click_num":5,"RT":2936,"action":1,"reward":-3.5},{"phase":"TASK","trial_num":25,"trial_length":10,"click_num":1,"RT":1775.5999999996275,"action":1,"reward":-3.5},{"phase":"TASK","trial_num":25,"trial_length":10,"click_num":2,"RT":2296,"action":1,"reward":-3.7},{"phase":"TASK","trial_num":25,"trial_length":10,"click_num":3,"RT":2696.0999999996275,"action":1,"reward":-2.9},{"phase":"TASK","trial_num":25,"trial_length":10,"click_num":4,"RT":2064,"action":1,"reward":-2.8},{"phase":"TASK","trial_num":25,"trial_length":10,"click_num":5,"RT":2415.9000000003725,"action":1,"reward":-2},{"phase":"TASK","trial_num":25,"trial_length":10,"click_num":6,"RT":1679.9000000003725,"action":0,"reward":-2},{"phase":"TASK","trial_num":25,"trial_length":10,"click_num":7,"RT":928.0999999996275,"action":0,"reward":-2},{"phase":"TASK","trial_num":25,"trial_length":10,"click_num":8,"RT":903.9000000003725,"action":0,"reward":-2},{"phase":"TASK","trial_num":25,"trial_length":10,"click_num":9,"RT":832,"action":0,"reward":-2},{"phase":"TASK","trial_num":25,"trial_length":10,"click_num":10,"RT":864,"action":0,"reward":-2},{"phase":"TASK","trial_num":26,"trial_length":9,"click_num":1,"RT":2991.60000000149,"action":1,"reward":-4.4},{"phase":"TASK","trial_num":26,"trial_length":9,"click_num":2,"RT":2096.0999999996275,"action":1,"reward":-3.1},{"phase":"TASK","trial_num":26,"trial_length":9,"click_num":3,"RT":1952.0999999996275,"action":1,"reward":-3},{"phase":"TASK","trial_num":26,"trial_length":9,"click_num":4,"RT":1559.9000000003725,"action":1,"reward":-3.6},{"phase":"TASK","trial_num":26,"trial_length":9,"click_num":5,"RT":1752.5,"action":1,"reward":-2.3},{"phase":"TASK","trial_num":26,"trial_length":9,"click_num":6,"RT":1615.5,"action":0,"reward":-2.3},{"phase":"TASK","trial_num":26,"trial_length":9,"click_num":7,"RT":800,"action":0,"reward":-2.3},{"phase":"TASK","trial_num":26,"trial_length":9,"click_num":8,"RT":760,"action":0,"reward":-2.3},{"phase":"TASK","trial_num":26,"trial_length":9,"click_num":9,"RT":872,"action":0,"reward":-2.3},{"phase":"TASK","trial_num":27,"trial_length":8,"click_num":1,"RT":1735.800000000745,"action":1,"reward":-3.6},{"phase":"TASK","trial_num":27,"trial_length":8,"click_num":2,"RT":2056.4000000003725,"action":1,"reward":-3.9},{"phase":"TASK","trial_num":27,"trial_length":8,"click_num":3,"RT":1727.5999999996275,"action":1,"reward":-3.3},{"phase":"TASK","trial_num":27,"trial_length":8,"click_num":4,"RT":1696,"action":1,"reward":-3.5},{"phase":"TASK","trial_num":27,"trial_length":8,"click_num":5,"RT":2024,"action":1,"reward":-2.2},{"phase":"TASK","trial_num":27,"trial_length":8,"click_num":6,"RT":1312,"action":0,"reward":-2.2},{"phase":"TASK","trial_num":27,"trial_length":8,"click_num":7,"RT":728,"action":0,"reward":-2.2},{"phase":"TASK","trial_num":27,"trial_length":8,"click_num":8,"RT":712,"action":0,"reward":-2.2},{"phase":"TASK","trial_num":28,"trial_length":7,"click_num":1,"RT":1999.800000000745,"action":1,"reward":-3.5},{"phase":"TASK","trial_num":28,"trial_length":7,"click_num":2,"RT":1303.9000000003725,"action":1,"reward":-3.4},{"phase":"TASK","trial_num":28,"trial_length":7,"click_num":3,"RT":1296,"action":1,"reward":-3},{"phase":"TASK","trial_num":28,"trial_length":7,"click_num":4,"RT":1304,"action":1,"reward":-3.6},{"phase":"TASK","trial_num":28,"trial_length":7,"click_num":5,"RT":2720,"action":1,"reward":-3.6},{"phase":"TASK","trial_num":28,"trial_length":7,"click_num":6,"RT":3008.5,"action":0,"reward":-3},{"phase":"TASK","trial_num":28,"trial_length":7,"click_num":7,"RT":1047.5999999996275,"action":0,"reward":-3},{"phase":"TASK","trial_num":29,"trial_length":6,"click_num":1,"RT":1919.7000000011176,"action":1,"reward":-2.9},{"phase":"TASK","trial_num":29,"trial_length":6,"click_num":2,"RT":2992.0999999996275,"action":1,"reward":-4.6},{"phase":"TASK","trial_num":29,"trial_length":6,"click_num":3,"RT":3248.199999999255,"action":1,"reward":-3.1},{"phase":"TASK","trial_num":29,"trial_length":6,"click_num":4,"RT":1863.9000000003725,"action":1,"reward":-3.6},{"phase":"TASK","trial_num":29,"trial_length":6,"click_num":5,"RT":1863.9000000003725,"action":1,"reward":-3.5},{"phase":"TASK","trial_num":29,"trial_length":6,"click_num":6,"RT":2735.9000000003725,"action":0,"reward":-2.9},{"phase":"TASK","trial_num":30,"trial_length":8,"click_num":1,"RT":2463.800000000745,"action":1,"reward":-3.7},{"phase":"TASK","trial_num":30,"trial_length":8,"click_num":2,"RT":1743.9000000003725,"action":1,"reward":-3.4},{"phase":"TASK","trial_num":30,"trial_length":8,"click_num":3,"RT":1824.0999999996275,"action":1,"reward":-2.7},{"phase":"TASK","trial_num":30,"trial_length":8,"click_num":4,"RT":5024,"action":1,"reward":-4.2},{"phase":"TASK","trial_num":30,"trial_length":8,"click_num":5,"RT":2544,"action":1,"reward":-3.3},{"phase":"TASK","trial_num":30,"trial_length":8,"click_num":6,"RT":1911.9000000003725,"action":0,"reward":-2.7},{"phase":"TASK","trial_num":30,"trial_length":8,"click_num":7,"RT":944.0999999996275,"action":0,"reward":-2.7},{"phase":"TASK","trial_num":30,"trial_length":8,"click_num":8,"RT":768,"action":0,"reward":-2.7},{"phase":"TASK","trial_num":31,"trial_length":6,"click_num":1,"RT":1319.800000000745,"action":1,"reward":-2.8},{"phase":"TASK","trial_num":31,"trial_length":6,"click_num":2,"RT":2319.800000000745,"action":1,"reward":-2.2},{"phase":"TASK","trial_num":31,"trial_length":6,"click_num":3,"RT":1640,"action":0,"reward":-2.2},{"phase":"TASK","trial_num":31,"trial_length":6,"click_num":4,"RT":1024,"action":0,"reward":-2.2},{"phase":"TASK","trial_num":31,"trial_length":6,"click_num":5,"RT":824.0999999996275,"action":0,"reward":-2.2},{"phase":"TASK","trial_num":31,"trial_length":6,"click_num":6,"RT":767.9000000003725,"action":0,"reward":-2.2},{"phase":"TASK","trial_num":32,"trial_length":6,"click_num":1,"RT":1399.800000000745,"action":1,"reward":-3.1},{"phase":"TASK","trial_num":32,"trial_length":6,"click_num":2,"RT":2512.0999999996275,"action":1,"reward":-3.7},{"phase":"TASK","trial_num":32,"trial_length":6,"click_num":3,"RT":3623.9000000003725,"action":1,"reward":-3.1},{"phase":"TASK","trial_num":32,"trial_length":6,"click_num":4,"RT":1952,"action":1,"reward":-2.6},{"phase":"TASK","trial_num":32,"trial_length":6,"click_num":5,"RT":2392.89999999851,"action":0,"reward":-2.6},{"phase":"TASK","trial_num":32,"trial_length":6,"click_num":6,"RT":943.1000000014901,"action":0,"reward":-2.6},{"phase":"TASK","trial_num":33,"trial_length":9,"click_num":1,"RT":5927.699999999255,"action":1,"reward":-3.1},{"phase":"TASK","trial_num":33,"trial_length":9,"click_num":2,"RT":1495.699999999255,"action":1,"reward":-2.3},{"phase":"TASK","trial_num":33,"trial_length":9,"click_num":3,"RT":1600.1000000014901,"action":0,"reward":-2.3},{"phase":"TASK","trial_num":33,"trial_length":9,"click_num":4,"RT":752.0999999996275,"action":0,"reward":-2.3},{"phase":"TASK","trial_num":33,"trial_length":9,"click_num":5,"RT":623.9000000003725,"action":0,"reward":-2.3},{"phase":"TASK","trial_num":33,"trial_length":9,"click_num":6,"RT":704.0999999996275,"action":0,"reward":-2.3},{"phase":"TASK","trial_num":33,"trial_length":9,"click_num":7,"RT":631.9000000003725,"action":0,"reward":-2.3},{"phase":"TASK","trial_num":33,"trial_length":9,"click_num":8,"RT":1200.0999999996275,"action":0,"reward":-2.3},{"phase":"TASK","trial_num":33,"trial_length":9,"click_num":9,"RT":632,"action":0,"reward":-2.3},{"phase":"TASK","trial_num":34,"trial_length":7,"click_num":1,"RT":1055.7000000011176,"action":1,"reward":-2.9},{"phase":"TASK","trial_num":34,"trial_length":7,"click_num":2,"RT":1551.9000000003725,"action":1,"reward":-4.3},{"phase":"TASK","trial_num":34,"trial_length":7,"click_num":3,"RT":1856.199999999255,"action":1,"reward":-3.8},{"phase":"TASK","trial_num":34,"trial_length":7,"click_num":4,"RT":2927.9000000003725,"action":1,"reward":-2.5},{"phase":"TASK","trial_num":34,"trial_length":7,"click_num":5,"RT":1671.9000000003725,"action":0,"reward":-2.5},{"phase":"TASK","trial_num":34,"trial_length":7,"click_num":6,"RT":944.0999999996275,"action":0,"reward":-2.5},{"phase":"TASK","trial_num":34,"trial_length":7,"click_num":7,"RT":928,"action":0,"reward":-2.5},{"phase":"TASK","trial_num":35,"trial_length":8,"click_num":1,"RT":2175.60000000149,"action":1,"reward":-2.3},{"phase":"TASK","trial_num":35,"trial_length":8,"click_num":2,"RT":2552,"action":0,"reward":-2.3},{"phase":"TASK","trial_num":35,"trial_length":8,"click_num":3,"RT":1144.0999999996275,"action":0,"reward":-2.3},{"phase":"TASK","trial_num":35,"trial_length":8,"click_num":4,"RT":1143.9000000003725,"action":0,"reward":-2.3},{"phase":"TASK","trial_num":35,"trial_length":8,"click_num":5,"RT":984.0999999996275,"action":0,"reward":-2.3},{"phase":"TASK","trial_num":35,"trial_length":8,"click_num":6,"RT":848,"action":0,"reward":-2.3},{"phase":"TASK","trial_num":35,"trial_length":8,"click_num":7,"RT":912,"action":0,"reward":-2.3},{"phase":"TASK","trial_num":35,"trial_length":8,"click_num":8,"RT":1584,"action":0,"reward":-2.3},{"phase":"TASK","trial_num":36,"trial_length":7,"click_num":1,"RT":2535.5999999996275,"action":1,"reward":-1.9},{"phase":"TASK","trial_num":36,"trial_length":7,"click_num":2,"RT":2144,"action":0,"reward":-1.9},{"phase":"TASK","trial_num":36,"trial_length":7,"click_num":3,"RT":1016.0999999996275,"action":0,"reward":-1.9},{"phase":"TASK","trial_num":36,"trial_length":7,"click_num":4,"RT":799.9000000003725,"action":0,"reward":-1.9},{"phase":"TASK","trial_num":36,"trial_length":7,"click_num":5,"RT":799.9000000003725,"action":0,"reward":-1.9},{"phase":"TASK","trial_num":36,"trial_length":7,"click_num":6,"RT":904.0999999996275,"action":0,"reward":-1.9},{"phase":"TASK","trial_num":36,"trial_length":7,"click_num":7,"RT":736.0999999996275,"action":0,"reward":-1.9},{"phase":"TASK","trial_num":37,"trial_length":10,"click_num":1,"RT":2167.699999999255,"action":1,"reward":-3.6},{"phase":"TASK","trial_num":37,"trial_length":10,"click_num":2,"RT":1432.0999999996275,"action":1,"reward":-4.3},{"phase":"TASK","trial_num":37,"trial_length":10,"click_num":3,"RT":1399.7000000011176,"action":1,"reward":-2.9},{"phase":"TASK","trial_num":37,"trial_length":10,"click_num":4,"RT":1544.0999999996275,"action":1,"reward":-2.9},{"phase":"TASK","trial_num":37,"trial_length":10,"click_num":5,"RT":1447.9000000003725,"action":1,"reward":-4.3},{"phase":"TASK","trial_num":37,"trial_length":10,"click_num":6,"RT":1392.2999999988824,"action":1,"reward":-3},{"phase":"TASK","trial_num":37,"trial_length":10,"click_num":7,"RT":2088,"action":1,"reward":-2},{"phase":"TASK","trial_num":37,"trial_length":10,"click_num":8,"RT":1527.7000000011176,"action":0,"reward":-2},{"phase":"TASK","trial_num":37,"trial_length":10,"click_num":9,"RT":728.0999999996275,"action":0,"reward":-2},{"phase":"TASK","trial_num":37,"trial_length":10,"click_num":10,"RT":1184.2999999988824,"action":0,"reward":-2},{"phase":"TASK","trial_num":38,"trial_length":7,"click_num":1,"RT":1479.9000000003725,"action":1,"reward":-4.1},{"phase":"TASK","trial_num":38,"trial_length":7,"click_num":2,"RT":5431.9000000003725,"action":1,"reward":-2.7},{"phase":"TASK","trial_num":38,"trial_length":7,"click_num":3,"RT":2520,"action":0,"reward":-2.7},{"phase":"TASK","trial_num":38,"trial_length":7,"click_num":4,"RT":2688,"action":1,"reward":-3.1},{"phase":"TASK","trial_num":38,"trial_length":7,"click_num":5,"RT":1840,"action":1,"reward":-3.1},{"phase":"TASK","trial_num":38,"trial_length":7,"click_num":6,"RT":2576,"action":1,"reward":-2.4},{"phase":"TASK","trial_num":38,"trial_length":7,"click_num":7,"RT":2031.9000000003725,"action":0,"reward":-2.4},{"phase":"TASK","trial_num":39,"trial_length":5,"click_num":1,"RT":2167.5,"action":1,"reward":-2.5},{"phase":"TASK","trial_num":39,"trial_length":5,"click_num":2,"RT":3552,"action":1,"reward":-3.5},{"phase":"TASK","trial_num":39,"trial_length":5,"click_num":3,"RT":1408,"action":0,"reward":-2.5},{"phase":"TASK","trial_num":39,"trial_length":5,"click_num":4,"RT":703.9000000003725,"action":0,"reward":-2.5},{"phase":"TASK","trial_num":39,"trial_length":5,"click_num":5,"RT":568.0999999996275,"action":0,"reward":-2.5},{"phase":"TASK","trial_num":40,"trial_length":10,"click_num":1,"RT":1919.4000000003725,"action":1,"reward":-3.2},{"phase":"TASK","trial_num":40,"trial_length":10,"click_num":2,"RT":2144,"action":1,"reward":-2},{"phase":"TASK","trial_num":40,"trial_length":10,"click_num":3,"RT":1479.9000000003725,"action":0,"reward":-2},{"phase":"TASK","trial_num":40,"trial_length":10,"click_num":4,"RT":816.5999999996275,"action":0,"reward":-2},{"phase":"TASK","trial_num":40,"trial_length":10,"click_num":5,"RT":911.5,"action":0,"reward":-2},{"phase":"TASK","trial_num":40,"trial_length":10,"click_num":6,"RT":848.0999999996275,"action":0,"reward":-2},{"phase":"TASK","trial_num":40,"trial_length":10,"click_num":7,"RT":815.9000000003725,"action":0,"reward":-2},{"phase":"TASK","trial_num":40,"trial_length":10,"click_num":8,"RT":847.9000000003725,"action":0,"reward":-2},{"phase":"TASK","trial_num":40,"trial_length":10,"click_num":9,"RT":824.1999999992549,"action":0,"reward":-2},{"phase":"TASK","trial_num":40,"trial_length":10,"click_num":10,"RT":767.8000000007451,"action":0,"reward":-2},{"phase":"TASK","trial_num":41,"trial_length":8,"click_num":1,"RT":2607.800000000745,"action":1,"reward":-2.7},{"phase":"TASK","trial_num":41,"trial_length":8,"click_num":2,"RT":4807.9000000003725,"action":1,"reward":-3.3},{"phase":"TASK","trial_num":41,"trial_length":8,"click_num":3,"RT":2528,"action":1,"reward":-2.6},{"phase":"TASK","trial_num":41,"trial_length":8,"click_num":4,"RT":2016.0999999996275,"action":1,"reward":-1.7},{"phase":"TASK","trial_num":41,"trial_length":8,"click_num":5,"RT":1464,"action":0,"reward":-1.7},{"phase":"TASK","trial_num":41,"trial_length":8,"click_num":6,"RT":975.9000000003725,"action":0,"reward":-1.7},{"phase":"TASK","trial_num":41,"trial_length":8,"click_num":7,"RT":896,"action":0,"reward":-1.7},{"phase":"TASK","trial_num":41,"trial_length":8,"click_num":8,"RT":832,"action":0,"reward":-1.7},{"phase":"TASK","trial_num":42,"trial_length":5,"click_num":1,"RT":5087.699999999255,"action":1,"reward":-3},{"phase":"TASK","trial_num":42,"trial_length":5,"click_num":2,"RT":3103.800000000745,"action":1,"reward":-3.2},{"phase":"TASK","trial_num":42,"trial_length":5,"click_num":3,"RT":2072,"action":1,"reward":-2.8},{"phase":"TASK","trial_num":42,"trial_length":5,"click_num":4,"RT":6016.0999999996275,"action":1,"reward":-3.3},{"phase":"TASK","trial_num":42,"trial_length":5,"click_num":5,"RT":2272,"action":1,"reward":-2.8},{"phase":"TASK","trial_num":43,"trial_length":7,"click_num":1,"RT":2335.60000000149,"action":1,"reward":-2.5},{"phase":"TASK","trial_num":43,"trial_length":7,"click_num":2,"RT":3352.0999999996275,"action":1,"reward":-3.2},{"phase":"TASK","trial_num":43,"trial_length":7,"click_num":3,"RT":2543.9000000003725,"action":1,"reward":-3.6},{"phase":"TASK","trial_num":43,"trial_length":7,"click_num":4,"RT":4008.0999999996275,"action":1,"reward":-4.2},{"phase":"TASK","trial_num":43,"trial_length":7,"click_num":5,"RT":2224,"action":0,"reward":-2.5},{"phase":"TASK","trial_num":43,"trial_length":7,"click_num":6,"RT":984,"action":0,"reward":-2.5},{"phase":"TASK","trial_num":43,"trial_length":7,"click_num":7,"RT":903.9000000003725,"action":0,"reward":-2.5},{"phase":"TASK","trial_num":44,"trial_length":6,"click_num":1,"RT":1527.800000000745,"action":1,"reward":-4.1},{"phase":"TASK","trial_num":44,"trial_length":6,"click_num":2,"RT":1687.9000000003725,"action":1,"reward":-3.2},{"phase":"TASK","trial_num":44,"trial_length":6,"click_num":3,"RT":1575.9000000003725,"action":1,"reward":-3.4},{"phase":"TASK","trial_num":44,"trial_length":6,"click_num":4,"RT":1976,"action":1,"reward":-2.4},{"phase":"TASK","trial_num":44,"trial_length":6,"click_num":5,"RT":1440.199999999255,"action":0,"reward":-2.4},{"phase":"TASK","trial_num":44,"trial_length":6,"click_num":6,"RT":704,"action":0,"reward":-2.4},{"phase":"TASK","trial_num":45,"trial_length":6,"click_num":1,"RT":1487.7000000011176,"action":1,"reward":-3.2},{"phase":"TASK","trial_num":45,"trial_length":6,"click_num":2,"RT":1680,"action":1,"reward":-3.5},{"phase":"TASK","trial_num":45,"trial_length":6,"click_num":3,"RT":2168,"action":1,"reward":-1.8},{"phase":"TASK","trial_num":45,"trial_length":6,"click_num":4,"RT":1479.9000000003725,"action":0,"reward":-1.8},{"phase":"TASK","trial_num":45,"trial_length":6,"click_num":5,"RT":776.2999999988824,"action":0,"reward":-1.8},{"phase":"TASK","trial_num":45,"trial_length":6,"click_num":6,"RT":807.8000000007451,"action":0,"reward":-1.8},{"phase":"TASK","trial_num":46,"trial_length":5,"click_num":1,"RT":1184.4000000003725,"action":1,"reward":-2.2},{"phase":"TASK","trial_num":46,"trial_length":5,"click_num":2,"RT":1495.4000000003725,"action":0,"reward":-2.2},{"phase":"TASK","trial_num":46,"trial_length":5,"click_num":3,"RT":784,"action":0,"reward":-2.2},{"phase":"TASK","trial_num":46,"trial_length":5,"click_num":4,"RT":807.9000000003725,"action":0,"reward":-2.2},{"phase":"TASK","trial_num":46,"trial_length":5,"click_num":5,"RT":696,"action":0,"reward":-2.2},{"phase":"TASK","trial_num":47,"trial_length":5,"click_num":1,"RT":1431.7000000011176,"action":1,"reward":-4.7},{"phase":"TASK","trial_num":47,"trial_length":5,"click_num":2,"RT":1720,"action":1,"reward":-3.8},{"phase":"TASK","trial_num":47,"trial_length":5,"click_num":3,"RT":1759.9000000003725,"action":1,"reward":-2.5},{"phase":"TASK","trial_num":47,"trial_length":5,"click_num":4,"RT":5208.0999999996275,"action":0,"reward":-2.5},{"phase":"TASK","trial_num":47,"trial_length":5,"click_num":5,"RT":1575.9000000003725,"action":0,"reward":-2.5},{"phase":"TASK","trial_num":48,"trial_length":7,"click_num":1,"RT":1551.9000000003725,"action":1,"reward":-3.1},{"phase":"TASK","trial_num":48,"trial_length":7,"click_num":2,"RT":1839.9000000003725,"action":1,"reward":-3.3},{"phase":"TASK","trial_num":48,"trial_length":7,"click_num":3,"RT":1992.0999999996275,"action":1,"reward":-3.3},{"phase":"TASK","trial_num":48,"trial_length":7,"click_num":4,"RT":1663.9000000003725,"action":1,"reward":-2.7},{"phase":"TASK","trial_num":48,"trial_length":7,"click_num":5,"RT":2560.0999999996275,"action":1,"reward":-2.7},{"phase":"TASK","trial_num":48,"trial_length":7,"click_num":6,"RT":1680,"action":1,"reward":-3.1},{"phase":"TASK","trial_num":48,"trial_length":7,"click_num":7,"RT":1888,"action":1,"reward":-2.6},{"phase":"TASK","trial_num":49,"trial_length":9,"click_num":1,"RT":1999.800000000745,"action":1,"reward":-2.4},{"phase":"TASK","trial_num":49,"trial_length":9,"click_num":2,"RT":1615.9000000003725,"action":1,"reward":-3.1},{"phase":"TASK","trial_num":49,"trial_length":9,"click_num":3,"RT":1624.0999999996275,"action":1,"reward":-2.4},{"phase":"TASK","trial_num":49,"trial_length":9,"click_num":4,"RT":2624,"action":1,"reward":-2.3},{"phase":"TASK","trial_num":49,"trial_length":9,"click_num":5,"RT":1568,"action":0,"reward":-2.3},{"phase":"TASK","trial_num":49,"trial_length":9,"click_num":6,"RT":1511.9000000003725,"action":0,"reward":-2.3},{"phase":"TASK","trial_num":49,"trial_length":9,"click_num":7,"RT":864,"action":0,"reward":-2.3},{"phase":"TASK","trial_num":49,"trial_length":9,"click_num":8,"RT":824.0999999996275,"action":0,"reward":-2.3},{"phase":"TASK","trial_num":49,"trial_length":9,"click_num":9,"RT":816.7999999988824,"action":0,"reward":-2.3},{"phase":"TASK","trial_num":50,"trial_length":9,"click_num":1,"RT":1647.5,"action":1,"reward":-2.2},{"phase":"TASK","trial_num":50,"trial_length":9,"click_num":2,"RT":1904.199999999255,"action":0,"reward":-2.2},{"phase":"TASK","trial_num":50,"trial_length":9,"click_num":3,"RT":991.8000000007451,"action":0,"reward":-2.2},{"phase":"TASK","trial_num":50,"trial_length":9,"click_num":4,"RT":888.1999999992549,"action":0,"reward":-2.2},{"phase":"TASK","trial_num":50,"trial_length":9,"click_num":5,"RT":880,"action":0,"reward":-2.2},{"phase":"TASK","trial_num":50,"trial_length":9,"click_num":6,"RT":808,"action":0,"reward":-2.2},{"phase":"TASK","trial_num":50,"trial_length":9,"click_num":7,"RT":767.9000000003725,"action":0,"reward":-2.2},{"phase":"TASK","trial_num":50,"trial_length":9,"click_num":8,"RT":776.0999999996275,"action":0,"reward":-2.2},{"phase":"TASK","trial_num":50,"trial_length":9,"click_num":9,"RT":808,"action":0,"reward":-2.2},{"phase":"TASK","trial_num":51,"trial_length":10,"click_num":1,"RT":1655.5999999996275,"action":1,"reward":-3.3},{"phase":"TASK","trial_num":51,"trial_length":10,"click_num":2,"RT":3127.699999999255,"action":1,"reward":-2.4},{"phase":"TASK","trial_num":51,"trial_length":10,"click_num":3,"RT":3176.2000000011176,"action":1,"reward":-2.3},{"phase":"TASK","trial_num":51,"trial_length":10,"click_num":4,"RT":5600,"action":1,"reward":-3.1},{"phase":"TASK","trial_num":51,"trial_length":10,"click_num":5,"RT":1736.199999999255,"action":1,"reward":-3.3},{"phase":"TASK","trial_num":51,"trial_length":10,"click_num":6,"RT":1599.9000000003725,"action":1,"reward":-3.3},{"phase":"TASK","trial_num":51,"trial_length":10,"click_num":7,"RT":2288.0999999996275,"action":0,"reward":-2.3},{"phase":"TASK","trial_num":51,"trial_length":10,"click_num":8,"RT":951.9000000003725,"action":0,"reward":-2.3},{"phase":"TASK","trial_num":51,"trial_length":10,"click_num":9,"RT":864,"action":0,"reward":-2.3},{"phase":"TASK","trial_num":51,"trial_length":10,"click_num":10,"RT":15487.900000000373,"action":0,"reward":-2.3},{"phase":"TASK","trial_num":52,"trial_length":7,"click_num":1,"RT":2343.9000000003725,"action":1,"reward":-2.8},{"phase":"TASK","trial_num":52,"trial_length":7,"click_num":2,"RT":3672,"action":1,"reward":-3.4},{"phase":"TASK","trial_num":52,"trial_length":7,"click_num":3,"RT":2055.9000000003725,"action":1,"reward":-2.8},{"phase":"TASK","trial_num":52,"trial_length":7,"click_num":4,"RT":3456.0999999996275,"action":1,"reward":-3.9},{"phase":"TASK","trial_num":52,"trial_length":7,"click_num":5,"RT":2007.9000000003725,"action":1,"reward":-2.8},{"phase":"TASK","trial_num":52,"trial_length":7,"click_num":6,"RT":1984.0999999996275,"action":1,"reward":-4.4},{"phase":"TASK","trial_num":52,"trial_length":7,"click_num":7,"RT":3367.9000000003725,"action":1,"reward":-2.8},{"phase":"TASK","trial_num":53,"trial_length":9,"click_num":1,"RT":1600.2000000011176,"action":1,"reward":-3.3},{"phase":"TASK","trial_num":53,"trial_length":9,"click_num":2,"RT":1783.5999999996275,"action":1,"reward":-3.7},{"phase":"TASK","trial_num":53,"trial_length":9,"click_num":3,"RT":1807.9000000003725,"action":1,"reward":-3.7},{"phase":"TASK","trial_num":53,"trial_length":9,"click_num":4,"RT":1911.9000000003725,"action":1,"reward":-3.8},{"phase":"TASK","trial_num":53,"trial_length":9,"click_num":5,"RT":2904,"action":1,"reward":-3.8},{"phase":"TASK","trial_num":53,"trial_length":9,"click_num":6,"RT":2152.0999999996275,"action":1,"reward":-3.7},{"phase":"TASK","trial_num":53,"trial_length":9,"click_num":7,"RT":2768.0999999996275,"action":1,"reward":-4},{"phase":"TASK","trial_num":53,"trial_length":9,"click_num":8,"RT":2903.9000000003725,"action":1,"reward":-4.9},{"phase":"TASK","trial_num":53,"trial_length":9,"click_num":9,"RT":5599.9000000003725,"action":1,"reward":-3.8},{"phase":"TASK","trial_num":54,"trial_length":6,"click_num":1,"RT":1775.9000000003725,"action":1,"reward":-3.1},{"phase":"TASK","trial_num":54,"trial_length":6,"click_num":2,"RT":2183.9000000003725,"action":1,"reward":-2.5},{"phase":"TASK","trial_num":54,"trial_length":6,"click_num":3,"RT":2447.9000000003725,"action":1,"reward":-3.4},{"phase":"TASK","trial_num":54,"trial_length":6,"click_num":4,"RT":1248.0999999996275,"action":0,"reward":-2.5},{"phase":"TASK","trial_num":54,"trial_length":6,"click_num":5,"RT":1392,"action":0,"reward":-2.5},{"phase":"TASK","trial_num":54,"trial_length":6,"click_num":6,"RT":1120,"action":0,"reward":-2.5},{"phase":"TASK","trial_num":55,"trial_length":7,"click_num":1,"RT":1047.6000000014901,"action":1,"reward":-2.4},{"phase":"TASK","trial_num":55,"trial_length":7,"click_num":2,"RT":2232.0999999996275,"action":1,"reward":-3.8},{"phase":"TASK","trial_num":55,"trial_length":7,"click_num":3,"RT":1312,"action":0,"reward":-2.4},{"phase":"TASK","trial_num":55,"trial_length":7,"click_num":4,"RT":704,"action":0,"reward":-2.4},{"phase":"TASK","trial_num":55,"trial_length":7,"click_num":5,"RT":688,"action":0,"reward":-2.4},{"phase":"TASK","trial_num":55,"trial_length":7,"click_num":6,"RT":608,"action":0,"reward":-2.4},{"phase":"TASK","trial_num":55,"trial_length":7,"click_num":7,"RT":599.9000000003725,"action":0,"reward":-2.4},{"phase":"TASK","trial_num":56,"trial_length":6,"click_num":1,"RT":1031.7000000011176,"action":1,"reward":-3.7},{"phase":"TASK","trial_num":56,"trial_length":6,"click_num":2,"RT":1360,"action":1,"reward":-2.8},{"phase":"TASK","trial_num":56,"trial_length":6,"click_num":3,"RT":1552,"action":1,"reward":-2.7},{"phase":"TASK","trial_num":56,"trial_length":6,"click_num":4,"RT":1671.9000000003725,"action":1,"reward":-3.2},{"phase":"TASK","trial_num":56,"trial_length":6,"click_num":5,"RT":1432.0999999996275,"action":0,"reward":-2.7},{"phase":"TASK","trial_num":56,"trial_length":6,"click_num":6,"RT":904,"action":0,"reward":-2.7},{"phase":"TASK","trial_num":57,"trial_length":6,"click_num":1,"RT":919.2000000011176,"action":1,"reward":-3.2},{"phase":"TASK","trial_num":57,"trial_length":6,"click_num":2,"RT":1208.0999999996275,"action":1,"reward":-3.8},{"phase":"TASK","trial_num":57,"trial_length":6,"click_num":3,"RT":984,"action":1,"reward":-1.7},{"phase":"TASK","trial_num":57,"trial_length":6,"click_num":4,"RT":1248.0999999996275,"action":0,"reward":-1.7},{"phase":"TASK","trial_num":57,"trial_length":6,"click_num":5,"RT":704,"action":0,"reward":-1.7},{"phase":"TASK","trial_num":57,"trial_length":6,"click_num":6,"RT":695.8000000007451,"action":0,"reward":-1.7},{"phase":"TASK","trial_num":58,"trial_length":7,"click_num":1,"RT":1032,"action":1,"reward":-2.6},{"phase":"TASK","trial_num":58,"trial_length":7,"click_num":2,"RT":1463.699999999255,"action":1,"reward":-3},{"phase":"TASK","trial_num":58,"trial_length":7,"click_num":3,"RT":1056.2000000011176,"action":1,"reward":-2.9},{"phase":"TASK","trial_num":58,"trial_length":7,"click_num":4,"RT":1032,"action":1,"reward":-2.1},{"phase":"TASK","trial_num":58,"trial_length":7,"click_num":5,"RT":1360,"action":0,"reward":-2.1},{"phase":"TASK","trial_num":58,"trial_length":7,"click_num":6,"RT":671.7999999988824,"action":0,"reward":-2.1},{"phase":"TASK","trial_num":58,"trial_length":7,"click_num":7,"RT":1520.1000000014901,"action":0,"reward":-2.1},{"phase":"TASK","trial_num":59,"trial_length":5,"click_num":1,"RT":4423.5999999996275,"action":1,"reward":-2.4},{"phase":"TASK","trial_num":59,"trial_length":5,"click_num":2,"RT":4343.9000000003725,"action":0,"reward":-2.4},{"phase":"TASK","trial_num":59,"trial_length":5,"click_num":3,"RT":800.0999999996275,"action":0,"reward":-2.4},{"phase":"TASK","trial_num":59,"trial_length":5,"click_num":4,"RT":760,"action":0,"reward":-2.4},{"phase":"TASK","trial_num":59,"trial_length":5,"click_num":5,"RT":752,"action":0,"reward":-2.4},{"phase":"TASK","trial_num":60,"trial_length":5,"click_num":1,"RT":1199.5999999996275,"action":1,"reward":-2.4},{"phase":"TASK","trial_num":60,"trial_length":5,"click_num":2,"RT":1943.9000000003725,"action":0,"reward":-2.4},{"phase":"TASK","trial_num":60,"trial_length":5,"click_num":3,"RT":752.0999999996275,"action":0,"reward":-2.4},{"phase":"TASK","trial_num":60,"trial_length":5,"click_num":4,"RT":744,"action":0,"reward":-2.4},{"phase":"TASK","trial_num":60,"trial_length":5,"click_num":5,"RT":800,"action":0,"reward":-2.4},{"phase":"TASK","trial_num":61,"trial_length":7,"click_num":1,"RT":1015.6000000014901,"action":1,"reward":-2.3},{"phase":"TASK","trial_num":61,"trial_length":7,"click_num":2,"RT":2000,"action":1,"reward":-3},{"phase":"TASK","trial_num":61,"trial_length":7,"click_num":3,"RT":1080.0999999996275,"action":0,"reward":-2.3},{"phase":"TASK","trial_num":61,"trial_length":7,"click_num":4,"RT":688,"action":0,"reward":-2.3},{"phase":"TASK","trial_num":61,"trial_length":7,"click_num":5,"RT":696,"action":0,"reward":-2.3},{"phase":"TASK","trial_num":61,"trial_length":7,"click_num":6,"RT":680,"action":0,"reward":-2.3},{"phase":"TASK","trial_num":61,"trial_length":7,"click_num":7,"RT":783.9000000003725,"action":0,"reward":-2.3},{"phase":"TASK","trial_num":62,"trial_length":10,"click_num":1,"RT":1239.7000000011176,"action":1,"reward":-3},{"phase":"TASK","trial_num":62,"trial_length":10,"click_num":2,"RT":1440,"action":1,"reward":-3.2},{"phase":"TASK","trial_num":62,"trial_length":10,"click_num":3,"RT":1263.9000000003725,"action":1,"reward":-3.4},{"phase":"TASK","trial_num":62,"trial_length":10,"click_num":4,"RT":1200.0999999996275,"action":1,"reward":-2.7},{"phase":"TASK","trial_num":62,"trial_length":10,"click_num":5,"RT":1168,"action":0,"reward":-2.7},{"phase":"TASK","trial_num":62,"trial_length":10,"click_num":6,"RT":704,"action":0,"reward":-2.7},{"phase":"TASK","trial_num":62,"trial_length":10,"click_num":7,"RT":1104,"action":0,"reward":-2.7},{"phase":"TASK","trial_num":62,"trial_length":10,"click_num":8,"RT":816,"action":0,"reward":-2.7},{"phase":"TASK","trial_num":62,"trial_length":10,"click_num":9,"RT":887.9000000003725,"action":1,"reward":-3.9},{"phase":"TASK","trial_num":62,"trial_length":10,"click_num":10,"RT":1376.0999999996275,"action":0,"reward":-2.7},{"phase":"TASK","trial_num":63,"trial_length":8,"click_num":1,"RT":2847.9000000003725,"action":1,"reward":-3.5},{"phase":"TASK","trial_num":63,"trial_length":8,"click_num":2,"RT":1776,"action":1,"reward":-3},{"phase":"TASK","trial_num":63,"trial_length":8,"click_num":3,"RT":1215.9000000003725,"action":1,"reward":-2.9},{"phase":"TASK","trial_num":63,"trial_length":8,"click_num":4,"RT":1056,"action":1,"reward":-2.3},{"phase":"TASK","trial_num":63,"trial_length":8,"click_num":5,"RT":1200.699999999255,"action":0,"reward":-2.3},{"phase":"TASK","trial_num":63,"trial_length":8,"click_num":6,"RT":567.4000000003725,"action":0,"reward":-2.3},{"phase":"TASK","trial_num":63,"trial_length":8,"click_num":7,"RT":608,"action":0,"reward":-2.3},{"phase":"TASK","trial_num":63,"trial_length":8,"click_num":8,"RT":584,"action":0,"reward":-2.3},{"phase":"TASK","trial_num":64,"trial_length":6,"click_num":1,"RT":1039.6000000014901,"action":1,"reward":-2.9},{"phase":"TASK","trial_num":64,"trial_length":6,"click_num":2,"RT":1104.0999999996275,"action":1,"reward":-3.2},{"phase":"TASK","trial_num":64,"trial_length":6,"click_num":3,"RT":896,"action":1,"reward":-2.6},{"phase":"TASK","trial_num":64,"trial_length":6,"click_num":4,"RT":1392,"action":0,"reward":-2.6},{"phase":"TASK","trial_num":64,"trial_length":6,"click_num":5,"RT":1063.9000000003725,"action":1,"reward":-3.3},{"phase":"TASK","trial_num":64,"trial_length":6,"click_num":6,"RT":1960.0999999996275,"action":1,"reward":-3.1},{"phase":"TASK","trial_num":65,"trial_length":5,"click_num":1,"RT":1256,"action":1,"reward":-2.9},{"phase":"TASK","trial_num":65,"trial_length":5,"click_num":2,"RT":1439.9000000003725,"action":1,"reward":-3.4},{"phase":"TASK","trial_num":65,"trial_length":5,"click_num":3,"RT":1135.699999999255,"action":1,"reward":-3.4},{"phase":"TASK","trial_num":65,"trial_length":5,"click_num":4,"RT":1248.300000000745,"action":1,"reward":-3.1},{"phase":"TASK","trial_num":65,"trial_length":5,"click_num":5,"RT":1512,"action":1,"reward":-3.6},{"phase":"TASK","trial_num":66,"trial_length":7,"click_num":1,"RT":911.7000000011176,"action":1,"reward":-3.4},{"phase":"TASK","trial_num":66,"trial_length":7,"click_num":2,"RT":1296,"action":1,"reward":-2.3},{"phase":"TASK","trial_num":66,"trial_length":7,"click_num":3,"RT":1312.0999999996275,"action":0,"reward":-2.3},{"phase":"TASK","trial_num":66,"trial_length":7,"click_num":4,"RT":792.2999999988824,"action":0,"reward":-2.3},{"phase":"TASK","trial_num":66,"trial_length":7,"click_num":5,"RT":719.6000000014901,"action":0,"reward":-2.3},{"phase":"TASK","trial_num":66,"trial_length":7,"click_num":6,"RT":696.0999999996275,"action":0,"reward":-2.3},{"phase":"TASK","trial_num":66,"trial_length":7,"click_num":7,"RT":752.5999999996275,"action":0,"reward":-2.3},{"phase":"TASK","trial_num":67,"trial_length":8,"click_num":1,"RT":1087.6000000014901,"action":1,"reward":-3.1},{"phase":"TASK","trial_num":67,"trial_length":8,"click_num":2,"RT":1608,"action":1,"reward":-3},{"phase":"TASK","trial_num":67,"trial_length":8,"click_num":3,"RT":1728.0999999996275,"action":1,"reward":-2.5},{"phase":"TASK","trial_num":67,"trial_length":8,"click_num":4,"RT":1736,"action":0,"reward":-2.5},{"phase":"TASK","trial_num":67,"trial_length":8,"click_num":5,"RT":975.9000000003725,"action":0,"reward":-2.5},{"phase":"TASK","trial_num":67,"trial_length":8,"click_num":6,"RT":792.0999999996275,"action":0,"reward":-2.5},{"phase":"TASK","trial_num":67,"trial_length":8,"click_num":7,"RT":736,"action":0,"reward":-2.5},{"phase":"TASK","trial_num":67,"trial_length":8,"click_num":8,"RT":743.9000000003725,"action":0,"reward":-2.5},{"phase":"TASK","trial_num":68,"trial_length":6,"click_num":1,"RT":1112.4000000003725,"action":1,"reward":-3.2},{"phase":"TASK","trial_num":68,"trial_length":6,"click_num":2,"RT":1567.4000000003725,"action":1,"reward":-3.9},{"phase":"TASK","trial_num":68,"trial_length":6,"click_num":3,"RT":5231.9000000003725,"action":1,"reward":-3.6},{"phase":"TASK","trial_num":68,"trial_length":6,"click_num":4,"RT":3736.0999999996275,"action":1,"reward":-3.2},{"phase":"TASK","trial_num":68,"trial_length":6,"click_num":5,"RT":1896.5,"action":1,"reward":-3.1},{"phase":"TASK","trial_num":68,"trial_length":6,"click_num":6,"RT":2095.5,"action":1,"reward":-3.3},{"phase":"TASK","trial_num":69,"trial_length":6,"click_num":1,"RT":2679.7000000011176,"action":1,"reward":-3.2},{"phase":"TASK","trial_num":69,"trial_length":6,"click_num":2,"RT":1640,"action":1,"reward":-2.7},{"phase":"TASK","trial_num":69,"trial_length":6,"click_num":3,"RT":4624,"action":1,"reward":-2.3},{"phase":"TASK","trial_num":69,"trial_length":6,"click_num":4,"RT":1432,"action":0,"reward":-2.3},{"phase":"TASK","trial_num":69,"trial_length":6,"click_num":5,"RT":832,"action":0,"reward":-2.3},{"phase":"TASK","trial_num":69,"trial_length":6,"click_num":6,"RT":800,"action":0,"reward":-2.3},{"phase":"TASK","trial_num":70,"trial_length":9,"click_num":1,"RT":1271.800000000745,"action":1,"reward":-2.9},{"phase":"TASK","trial_num":70,"trial_length":9,"click_num":2,"RT":2192,"action":1,"reward":-2.9},{"phase":"TASK","trial_num":70,"trial_length":9,"click_num":3,"RT":1552.0999999996275,"action":1,"reward":-3.1},{"phase":"TASK","trial_num":70,"trial_length":9,"click_num":4,"RT":1935.800000000745,"action":1,"reward":-3.8},{"phase":"TASK","trial_num":70,"trial_length":9,"click_num":5,"RT":1792.199999999255,"action":1,"reward":-3.6},{"phase":"TASK","trial_num":70,"trial_length":9,"click_num":6,"RT":2407.9000000003725,"action":1,"reward":-3.8},{"phase":"TASK","trial_num":70,"trial_length":9,"click_num":7,"RT":1880.0999999996275,"action":1,"reward":-3.2},{"phase":"TASK","trial_num":70,"trial_length":9,"click_num":8,"RT":1583.9000000003725,"action":0,"reward":-2.9},{"phase":"TASK","trial_num":70,"trial_length":9,"click_num":9,"RT":832,"action":0,"reward":-2.9},{"phase":"TASK","trial_num":71,"trial_length":6,"click_num":1,"RT":1288.1000000014901,"action":1,"reward":-2.8},{"phase":"TASK","trial_num":71,"trial_length":6,"click_num":2,"RT":3575.5999999996275,"action":1,"reward":-3.5},{"phase":"TASK","trial_num":71,"trial_length":6,"click_num":3,"RT":2655.9000000003725,"action":1,"reward":-3},{"phase":"TASK","trial_num":71,"trial_length":6,"click_num":4,"RT":1552.0999999996275,"action":1,"reward":-3},{"phase":"TASK","trial_num":71,"trial_length":6,"click_num":5,"RT":1599.9000000003725,"action":0,"reward":-2.8},{"phase":"TASK","trial_num":71,"trial_length":6,"click_num":6,"RT":1472.0999999996275,"action":0,"reward":-2.8},{"phase":"TASK","trial_num":72,"trial_length":7,"click_num":1,"RT":1167.9000000003725,"action":1,"reward":-2.8},{"phase":"TASK","trial_num":72,"trial_length":7,"click_num":2,"RT":1855.9000000003725,"action":1,"reward":-3.3},{"phase":"TASK","trial_num":72,"trial_length":7,"click_num":3,"RT":1839.9000000003725,"action":1,"reward":-3},{"phase":"TASK","trial_num":72,"trial_length":7,"click_num":4,"RT":1480.0999999996275,"action":1,"reward":-2},{"phase":"TASK","trial_num":72,"trial_length":7,"click_num":5,"RT":1496,"action":0,"reward":-2},{"phase":"TASK","trial_num":72,"trial_length":7,"click_num":6,"RT":752,"action":0,"reward":-2},{"phase":"TASK","trial_num":72,"trial_length":7,"click_num":7,"RT":648,"action":0,"reward":-2},{"phase":"TASK","trial_num":73,"trial_length":6,"click_num":1,"RT":1455.800000000745,"action":1,"reward":-2.6},{"phase":"TASK","trial_num":73,"trial_length":6,"click_num":2,"RT":2008,"action":1,"reward":-3.3},{"phase":"TASK","trial_num":73,"trial_length":6,"click_num":3,"RT":1367.9000000003725,"action":1,"reward":-2.1},{"phase":"TASK","trial_num":73,"trial_length":6,"click_num":4,"RT":1296.0999999996275,"action":0,"reward":-2.1},{"phase":"TASK","trial_num":73,"trial_length":6,"click_num":5,"RT":712,"action":0,"reward":-2.1},{"phase":"TASK","trial_num":73,"trial_length":6,"click_num":6,"RT":800,"action":0,"reward":-2.1},{"phase":"TASK","trial_num":74,"trial_length":10,"click_num":1,"RT":991.8000000007451,"action":1,"reward":-3.4},{"phase":"TASK","trial_num":74,"trial_length":10,"click_num":2,"RT":1391.9000000003725,"action":1,"reward":-3.9},{"phase":"TASK","trial_num":74,"trial_length":10,"click_num":3,"RT":1376.0999999996275,"action":1,"reward":-3.1},{"phase":"TASK","trial_num":74,"trial_length":10,"click_num":4,"RT":1360.0999999996275,"action":1,"reward":-2.5},{"phase":"TASK","trial_num":74,"trial_length":10,"click_num":5,"RT":2559.9000000003725,"action":1,"reward":-3},{"phase":"TASK","trial_num":74,"trial_length":10,"click_num":6,"RT":1336,"action":0,"reward":-2.5},{"phase":"TASK","trial_num":74,"trial_length":10,"click_num":7,"RT":984,"action":0,"reward":-2.5},{"phase":"TASK","trial_num":74,"trial_length":10,"click_num":8,"RT":1416.0999999996275,"action":1,"reward":-3.8},{"phase":"TASK","trial_num":74,"trial_length":10,"click_num":9,"RT":1271.9000000003725,"action":0,"reward":-2.5},{"phase":"TASK","trial_num":74,"trial_length":10,"click_num":10,"RT":1152,"action":1,"reward":-2.7},{"phase":"TASK","trial_num":75,"trial_length":9,"click_num":1,"RT":2679.60000000149,"action":1,"reward":-4.2},{"phase":"TASK","trial_num":75,"trial_length":9,"click_num":2,"RT":1848.0999999996275,"action":1,"reward":-2},{"phase":"TASK","trial_num":75,"trial_length":9,"click_num":3,"RT":1415.9000000003725,"action":0,"reward":-2},{"phase":"TASK","trial_num":75,"trial_length":9,"click_num":4,"RT":1360,"action":0,"reward":-2},{"phase":"TASK","trial_num":75,"trial_length":9,"click_num":5,"RT":712.0999999996275,"action":0,"reward":-2},{"phase":"TASK","trial_num":75,"trial_length":9,"click_num":6,"RT":751.9000000003725,"action":0,"reward":-2},{"phase":"TASK","trial_num":75,"trial_length":9,"click_num":7,"RT":743.6999999992549,"action":0,"reward":-2},{"phase":"TASK","trial_num":75,"trial_length":9,"click_num":8,"RT":800.3000000007451,"action":0,"reward":-2},{"phase":"TASK","trial_num":75,"trial_length":9,"click_num":9,"RT":872,"action":0,"reward":-2},{"phase":"TASK","trial_num":76,"trial_length":5,"click_num":1,"RT":1151.6000000014901,"action":1,"reward":-3.4},{"phase":"TASK","trial_num":76,"trial_length":5,"click_num":2,"RT":1400.199999999255,"action":1,"reward":-3.5},{"phase":"TASK","trial_num":76,"trial_length":5,"click_num":3,"RT":1407.800000000745,"action":1,"reward":-3.8},{"phase":"TASK","trial_num":76,"trial_length":5,"click_num":4,"RT":1328.0999999996275,"action":1,"reward":-3},{"phase":"TASK","trial_num":76,"trial_length":5,"click_num":5,"RT":1480,"action":1,"reward":-2.9},{"phase":"TASK","trial_num":77,"trial_length":10,"click_num":1,"RT":4591.800000000745,"action":1,"reward":-2.7},{"phase":"TASK","trial_num":77,"trial_length":10,"click_num":2,"RT":1640.0999999996275,"action":1,"reward":-3.8},{"phase":"TASK","trial_num":77,"trial_length":10,"click_num":3,"RT":2199.7000000011176,"action":1,"reward":-2.6},{"phase":"TASK","trial_num":77,"trial_length":10,"click_num":4,"RT":1704,"action":0,"reward":-2.6},{"phase":"TASK","trial_num":77,"trial_length":10,"click_num":5,"RT":1400,"action":0,"reward":-2.6},{"phase":"TASK","trial_num":77,"trial_length":10,"click_num":6,"RT":1072.199999999255,"action":0,"reward":-2.6},{"phase":"TASK","trial_num":77,"trial_length":10,"click_num":7,"RT":1295.9000000003725,"action":0,"reward":-2.6},{"phase":"TASK","trial_num":77,"trial_length":10,"click_num":8,"RT":872,"action":0,"reward":-2.6},{"phase":"TASK","trial_num":77,"trial_length":10,"click_num":9,"RT":872.0999999996275,"action":0,"reward":-2.6},{"phase":"TASK","trial_num":77,"trial_length":10,"click_num":10,"RT":951.9000000003725,"action":0,"reward":-2.6},{"phase":"TASK","trial_num":78,"trial_length":5,"click_num":1,"RT":1007.8000000007451,"action":1,"reward":-3.1},{"phase":"TASK","trial_num":78,"trial_length":5,"click_num":2,"RT":1728.0999999996275,"action":1,"reward":-2.3},{"phase":"TASK","trial_num":78,"trial_length":5,"click_num":3,"RT":1535.9000000003725,"action":0,"reward":-2.3},{"phase":"TASK","trial_num":78,"trial_length":5,"click_num":4,"RT":703.9000000003725,"action":0,"reward":-2.3},{"phase":"TASK","trial_num":78,"trial_length":5,"click_num":5,"RT":656,"action":0,"reward":-2.3},{"phase":"TASK","trial_num":79,"trial_length":10,"click_num":1,"RT":831.2000000011176,"action":1,"reward":-2.6},{"phase":"TASK","trial_num":79,"trial_length":10,"click_num":2,"RT":1928.0999999996275,"action":1,"reward":-2.4},{"phase":"TASK","trial_num":79,"trial_length":10,"click_num":3,"RT":1984,"action":1,"reward":-1.8},{"phase":"TASK","trial_num":79,"trial_length":10,"click_num":4,"RT":1351.9000000003725,"action":0,"reward":-1.8},{"phase":"TASK","trial_num":79,"trial_length":10,"click_num":5,"RT":880,"action":0,"reward":-1.8},{"phase":"TASK","trial_num":79,"trial_length":10,"click_num":6,"RT":744.0999999996275,"action":0,"reward":-1.8},{"phase":"TASK","trial_num":79,"trial_length":10,"click_num":7,"RT":696,"action":0,"reward":-1.8},{"phase":"TASK","trial_num":79,"trial_length":10,"click_num":8,"RT":807.9000000003725,"action":0,"reward":-1.8},{"phase":"TASK","trial_num":79,"trial_length":10,"click_num":9,"RT":792,"action":0,"reward":-1.8},{"phase":"TASK","trial_num":79,"trial_length":10,"click_num":10,"RT":720.0999999996275,"action":0,"reward":-1.8},{"phase":"TASK","trial_num":80,"trial_length":7,"click_num":1,"RT":1879.5999999996275,"action":1,"reward":-3},{"phase":"TASK","trial_num":80,"trial_length":7,"click_num":2,"RT":2503.9000000003725,"action":1,"reward":-1},{"phase":"TASK","trial_num":80,"trial_length":7,"click_num":3,"RT":2447.9000000003725,"action":0,"reward":-1},{"phase":"TASK","trial_num":80,"trial_length":7,"click_num":4,"RT":943.8999999985099,"action":0,"reward":-1},{"phase":"TASK","trial_num":80,"trial_length":7,"click_num":5,"RT":816.2000000011176,"action":0,"reward":-1},{"phase":"TASK","trial_num":80,"trial_length":7,"click_num":6,"RT":856,"action":0,"reward":-1},{"phase":"TASK","trial_num":80,"trial_length":7,"click_num":7,"RT":960.0999999996275,"action":0,"reward":-1},{"phase":"TASK","trial_num":81,"trial_length":8,"click_num":1,"RT":4615.4000000003725,"action":1,"reward":-3},{"phase":"TASK","trial_num":81,"trial_length":8,"click_num":2,"RT":6048.0999999996275,"action":1,"reward":-3.2},{"phase":"TASK","trial_num":81,"trial_length":8,"click_num":3,"RT":1592,"action":1,"reward":-3.3},{"phase":"TASK","trial_num":81,"trial_length":8,"click_num":4,"RT":2328.0999999996275,"action":1,"reward":-3.9},{"phase":"TASK","trial_num":81,"trial_length":8,"click_num":5,"RT":2528,"action":1,"reward":-2.4},{"phase":"TASK","trial_num":81,"trial_length":8,"click_num":6,"RT":2183.9000000003725,"action":0,"reward":-2.4},{"phase":"TASK","trial_num":81,"trial_length":8,"click_num":7,"RT":856,"action":0,"reward":-2.4},{"phase":"TASK","trial_num":81,"trial_length":8,"click_num":8,"RT":856,"action":0,"reward":-2.4},{"phase":"TASK","trial_num":82,"trial_length":6,"click_num":1,"RT":1560.2000000011176,"action":1,"reward":-2.3},{"phase":"TASK","trial_num":82,"trial_length":6,"click_num":2,"RT":2095.5999999996275,"action":0,"reward":-2.3},{"phase":"TASK","trial_num":82,"trial_length":6,"click_num":3,"RT":984,"action":0,"reward":-2.3},{"phase":"TASK","trial_num":82,"trial_length":6,"click_num":4,"RT":784,"action":0,"reward":-2.3},{"phase":"TASK","trial_num":82,"trial_length":6,"click_num":5,"RT":671.9000000003725,"action":0,"reward":-2.3},{"phase":"TASK","trial_num":82,"trial_length":6,"click_num":6,"RT":624.1999999992549,"action":0,"reward":-2.3},{"phase":"TASK","trial_num":83,"trial_length":8,"click_num":1,"RT":1295.800000000745,"action":1,"reward":-3.8},{"phase":"TASK","trial_num":83,"trial_length":8,"click_num":2,"RT":1680,"action":1,"reward":-3.5},{"phase":"TASK","trial_num":83,"trial_length":8,"click_num":3,"RT":1512,"action":1,"reward":-3.7},{"phase":"TASK","trial_num":83,"trial_length":8,"click_num":4,"RT":1560,"action":1,"reward":-3.6},{"phase":"TASK","trial_num":83,"trial_length":8,"click_num":5,"RT":1351.9000000003725,"action":1,"reward":-2.2},{"phase":"TASK","trial_num":83,"trial_length":8,"click_num":6,"RT":1432.0999999996275,"action":0,"reward":-2.2},{"phase":"TASK","trial_num":83,"trial_length":8,"click_num":7,"RT":704,"action":0,"reward":-2.2},{"phase":"TASK","trial_num":83,"trial_length":8,"click_num":8,"RT":1136.5999999996275,"action":0,"reward":-2.2},{"phase":"TASK","trial_num":84,"trial_length":7,"click_num":1,"RT":1055.7000000011176,"action":1,"reward":-4.3},{"phase":"TASK","trial_num":84,"trial_length":7,"click_num":2,"RT":1280.0999999996275,"action":1,"reward":-2.9},{"phase":"TASK","trial_num":84,"trial_length":7,"click_num":3,"RT":1511.800000000745,"action":1,"reward":-2.4},{"phase":"TASK","trial_num":84,"trial_length":7,"click_num":4,"RT":1224.199999999255,"action":0,"reward":-2.4},{"phase":"TASK","trial_num":84,"trial_length":7,"click_num":5,"RT":703.9000000003725,"action":0,"reward":-2.4},{"phase":"TASK","trial_num":84,"trial_length":7,"click_num":6,"RT":663.9000000003725,"action":0,"reward":-2.4},{"phase":"TASK","trial_num":84,"trial_length":7,"click_num":7,"RT":592.0999999996275,"action":0,"reward":-2.4},{"phase":"TASK","trial_num":85,"trial_length":10,"click_num":1,"RT":1687.800000000745,"action":1,"reward":-2.4},{"phase":"TASK","trial_num":85,"trial_length":10,"click_num":2,"RT":1623.9000000003725,"action":1,"reward":-2.4},{"phase":"TASK","trial_num":85,"trial_length":10,"click_num":3,"RT":2504.0999999996275,"action":0,"reward":-2.4},{"phase":"TASK","trial_num":85,"trial_length":10,"click_num":4,"RT":744.0999999996275,"action":0,"reward":-2.4},{"phase":"TASK","trial_num":85,"trial_length":10,"click_num":5,"RT":719.8000000007451,"action":0,"reward":-2.4},{"phase":"TASK","trial_num":85,"trial_length":10,"click_num":6,"RT":640.0999999996275,"action":0,"reward":-2.4},{"phase":"TASK","trial_num":85,"trial_length":10,"click_num":7,"RT":608.5999999996275,"action":0,"reward":-2.4},{"phase":"TASK","trial_num":85,"trial_length":10,"click_num":8,"RT":567.5,"action":0,"reward":-2.4},{"phase":"TASK","trial_num":85,"trial_length":10,"click_num":9,"RT":567.8000000007451,"action":0,"reward":-2.4},{"phase":"TASK","trial_num":85,"trial_length":10,"click_num":10,"RT":600,"action":0,"reward":-2.4},{"phase":"TASK","trial_num":86,"trial_length":9,"click_num":1,"RT":927.7000000011176,"action":1,"reward":-1.6},{"phase":"TASK","trial_num":86,"trial_length":9,"click_num":2,"RT":1743.9000000003725,"action":0,"reward":-1.6},{"phase":"TASK","trial_num":86,"trial_length":9,"click_num":3,"RT":624.0999999996275,"action":0,"reward":-1.6},{"phase":"TASK","trial_num":86,"trial_length":9,"click_num":4,"RT":680.4000000003725,"action":0,"reward":-1.6},{"phase":"TASK","trial_num":86,"trial_length":9,"click_num":5,"RT":647.5999999996275,"action":0,"reward":-1.6},{"phase":"TASK","trial_num":86,"trial_length":9,"click_num":6,"RT":664.0999999996275,"action":0,"reward":-1.6},{"phase":"TASK","trial_num":86,"trial_length":9,"click_num":7,"RT":615.9000000003725,"action":0,"reward":-1.6},{"phase":"TASK","trial_num":86,"trial_length":9,"click_num":8,"RT":616,"action":0,"reward":-1.6},{"phase":"TASK","trial_num":86,"trial_length":9,"click_num":9,"RT":728,"action":0,"reward":-1.6},{"phase":"TASK","trial_num":87,"trial_length":7,"click_num":1,"RT":1303.800000000745,"action":1,"reward":-3.1},{"phase":"TASK","trial_num":87,"trial_length":7,"click_num":2,"RT":1416.0999999996275,"action":1,"reward":-2.7},{"phase":"TASK","trial_num":87,"trial_length":7,"click_num":3,"RT":1391.9000000003725,"action":1,"reward":-2.8},{"phase":"TASK","trial_num":87,"trial_length":7,"click_num":4,"RT":1288,"action":1,"reward":-3.6},{"phase":"TASK","trial_num":87,"trial_length":7,"click_num":5,"RT":1319.9000000003725,"action":1,"reward":-3.3},{"phase":"TASK","trial_num":87,"trial_length":7,"click_num":6,"RT":1376.0999999996275,"action":0,"reward":-2.7},{"phase":"TASK","trial_num":87,"trial_length":7,"click_num":7,"RT":800,"action":0,"reward":-2.7},{"phase":"TASK","trial_num":88,"trial_length":9,"click_num":1,"RT":1247.7000000011176,"action":1,"reward":-3.1},{"phase":"TASK","trial_num":88,"trial_length":9,"click_num":2,"RT":1296,"action":1,"reward":-1.8},{"phase":"TASK","trial_num":88,"trial_length":9,"click_num":3,"RT":1248,"action":0,"reward":-1.8},{"phase":"TASK","trial_num":88,"trial_length":9,"click_num":4,"RT":632.4000000003725,"action":0,"reward":-1.8},{"phase":"TASK","trial_num":88,"trial_length":9,"click_num":5,"RT":567.6999999992549,"action":0,"reward":-1.8},{"phase":"TASK","trial_num":88,"trial_length":9,"click_num":6,"RT":583.9000000003725,"action":0,"reward":-1.8},{"phase":"TASK","trial_num":88,"trial_length":9,"click_num":7,"RT":583.9000000003725,"action":0,"reward":-1.8},{"phase":"TASK","trial_num":88,"trial_length":9,"click_num":8,"RT":592.7999999988824,"action":0,"reward":-1.8},{"phase":"TASK","trial_num":88,"trial_length":9,"click_num":9,"RT":655.3000000007451,"action":0,"reward":-1.8},{"phase":"TASK","trial_num":89,"trial_length":5,"click_num":1,"RT":1031.7000000011176,"action":1,"reward":-3.1},{"phase":"TASK","trial_num":89,"trial_length":5,"click_num":2,"RT":2032.5,"action":1,"reward":-3},{"phase":"TASK","trial_num":89,"trial_length":5,"click_num":3,"RT":7967.5,"action":1,"reward":-3.2},{"phase":"TASK","trial_num":89,"trial_length":5,"click_num":4,"RT":832,"action":1,"reward":-2.5},{"phase":"TASK","trial_num":89,"trial_length":5,"click_num":5,"RT":1664.0999999996275,"action":1,"reward":-2.5},{"phase":"TASK","trial_num":90,"trial_length":7,"click_num":1,"RT":887.8000000007451,"action":1,"reward":-2.9},{"phase":"TASK","trial_num":90,"trial_length":7,"click_num":2,"RT":903.8000000007451,"action":1,"reward":-2.6},{"phase":"TASK","trial_num":90,"trial_length":7,"click_num":3,"RT":960.0999999996275,"action":1,"reward":-3.4},{"phase":"TASK","trial_num":90,"trial_length":7,"click_num":4,"RT":1264,"action":0,"reward":-2.6},{"phase":"TASK","trial_num":90,"trial_length":7,"click_num":5,"RT":944.5,"action":0,"reward":-2.6},{"phase":"TASK","trial_num":90,"trial_length":7,"click_num":6,"RT":927.2999999988824,"action":1,"reward":-3.2},{"phase":"TASK","trial_num":90,"trial_length":7,"click_num":7,"RT":936.1000000014901,"action":0,"reward":-2.6},{"phase":"TASK","trial_num":91,"trial_length":6,"click_num":1,"RT":2006.699999999255,"action":1,"reward":-3.9},{"phase":"TASK","trial_num":91,"trial_length":6,"click_num":2,"RT":1504.7000000011176,"action":1,"reward":-3},{"phase":"TASK","trial_num":91,"trial_length":6,"click_num":3,"RT":1287.5,"action":1,"reward":-2.8},{"phase":"TASK","trial_num":91,"trial_length":6,"click_num":4,"RT":1192.0999999996275,"action":1,"reward":-2.6},{"phase":"TASK","trial_num":91,"trial_length":6,"click_num":5,"RT":2335.9000000003725,"action":0,"reward":-2.6},{"phase":"TASK","trial_num":91,"trial_length":6,"click_num":6,"RT":1016.0999999996275,"action":0,"reward":-2.6},{"phase":"TASK","trial_num":92,"trial_length":7,"click_num":1,"RT":1319.6000000014901,"action":1,"reward":-2.7},{"phase":"TASK","trial_num":92,"trial_length":7,"click_num":2,"RT":1544.0999999996275,"action":1,"reward":-3.3},{"phase":"TASK","trial_num":92,"trial_length":7,"click_num":3,"RT":1528,"action":1,"reward":-3.1},{"phase":"TASK","trial_num":92,"trial_length":7,"click_num":4,"RT":1392.0999999996275,"action":1,"reward":-3.4},{"phase":"TASK","trial_num":92,"trial_length":7,"click_num":5,"RT":1927.800000000745,"action":0,"reward":-2.7},{"phase":"TASK","trial_num":92,"trial_length":7,"click_num":6,"RT":1336.0999999996275,"action":0,"reward":-2.7},{"phase":"TASK","trial_num":92,"trial_length":7,"click_num":7,"RT":1639.9000000003725,"action":0,"reward":-2.7},{"phase":"TASK","trial_num":93,"trial_length":9,"click_num":1,"RT":1015.8000000007451,"action":1,"reward":-2.8},{"phase":"TASK","trial_num":93,"trial_length":9,"click_num":2,"RT":1567.9000000003725,"action":1,"reward":-2.8},{"phase":"TASK","trial_num":93,"trial_length":9,"click_num":3,"RT":2032.0999999996275,"action":1,"reward":-2.8},{"phase":"TASK","trial_num":93,"trial_length":9,"click_num":4,"RT":1583.9000000003725,"action":1,"reward":-4},{"phase":"TASK","trial_num":93,"trial_length":9,"click_num":5,"RT":1616,"action":1,"reward":-4.1},{"phase":"TASK","trial_num":93,"trial_length":9,"click_num":6,"RT":1320.0999999996275,"action":0,"reward":-2.8},{"phase":"TASK","trial_num":93,"trial_length":9,"click_num":7,"RT":816,"action":0,"reward":-2.8},{"phase":"TASK","trial_num":93,"trial_length":9,"click_num":8,"RT":775.9000000003725,"action":0,"reward":-2.8},{"phase":"TASK","trial_num":93,"trial_length":9,"click_num":9,"RT":632.0999999996275,"action":0,"reward":-2.8},{"phase":"TASK","trial_num":94,"trial_length":9,"click_num":1,"RT":1175.800000000745,"action":1,"reward":-4.1},{"phase":"TASK","trial_num":94,"trial_length":9,"click_num":2,"RT":1144,"action":1,"reward":-3.4},{"phase":"TASK","trial_num":94,"trial_length":9,"click_num":3,"RT":1056,"action":1,"reward":-3.9},{"phase":"TASK","trial_num":94,"trial_length":9,"click_num":4,"RT":1152,"action":1,"reward":-2.7},{"phase":"TASK","trial_num":94,"trial_length":9,"click_num":5,"RT":1384,"action":0,"reward":-2.7},{"phase":"TASK","trial_num":94,"trial_length":9,"click_num":6,"RT":840,"action":0,"reward":-2.7},{"phase":"TASK","trial_num":94,"trial_length":9,"click_num":7,"RT":679.9000000003725,"action":0,"reward":-2.7},{"phase":"TASK","trial_num":94,"trial_length":9,"click_num":8,"RT":696.0999999996275,"action":0,"reward":-2.7},{"phase":"TASK","trial_num":94,"trial_length":9,"click_num":9,"RT":920,"action":0,"reward":-2.7},{"phase":"TASK","trial_num":95,"trial_length":6,"click_num":1,"RT":2135.7000000011176,"action":1,"reward":-2.8},{"phase":"TASK","trial_num":95,"trial_length":6,"click_num":2,"RT":1848,"action":1,"reward":-2.4},{"phase":"TASK","trial_num":95,"trial_length":6,"click_num":3,"RT":1408,"action":0,"reward":-2.4},{"phase":"TASK","trial_num":95,"trial_length":6,"click_num":4,"RT":808,"action":0,"reward":-2.4},{"phase":"TASK","trial_num":95,"trial_length":6,"click_num":5,"RT":1039.9000000003725,"action":0,"reward":-2.4},{"phase":"TASK","trial_num":95,"trial_length":6,"click_num":6,"RT":3888.0999999996275,"action":0,"reward":-2.4},{"phase":"TASK","trial_num":96,"trial_length":7,"click_num":1,"RT":2119.7000000011176,"action":1,"reward":-4.1},{"phase":"TASK","trial_num":96,"trial_length":7,"click_num":2,"RT":1848.0999999996275,"action":1,"reward":-2.7},{"phase":"TASK","trial_num":96,"trial_length":7,"click_num":3,"RT":3808,"action":1,"reward":-2.9},{"phase":"TASK","trial_num":96,"trial_length":7,"click_num":4,"RT":1576,"action":1,"reward":-3},{"phase":"TASK","trial_num":96,"trial_length":7,"click_num":5,"RT":1376.0999999996275,"action":1,"reward":-3.6},{"phase":"TASK","trial_num":96,"trial_length":7,"click_num":6,"RT":1287.800000000745,"action":1,"reward":-3.6},{"phase":"TASK","trial_num":96,"trial_length":7,"click_num":7,"RT":1232.199999999255,"action":1,"reward":-3.8},{"phase":"TASK","trial_num":97,"trial_length":6,"click_num":1,"RT":3495.5,"action":1,"reward":-2.7},{"phase":"TASK","trial_num":97,"trial_length":6,"click_num":2,"RT":2112,"action":1,"reward":-3.2},{"phase":"TASK","trial_num":97,"trial_length":6,"click_num":3,"RT":1760,"action":1,"reward":-3.2},{"phase":"TASK","trial_num":97,"trial_length":6,"click_num":4,"RT":2560,"action":1,"reward":-3.5},{"phase":"TASK","trial_num":97,"trial_length":6,"click_num":5,"RT":1200,"action":0,"reward":-2.7},{"phase":"TASK","trial_num":97,"trial_length":6,"click_num":6,"RT":768.0999999996275,"action":0,"reward":-2.7},{"phase":"TASK","trial_num":98,"trial_length":7,"click_num":1,"RT":983.4000000003725,"action":1,"reward":-2.8},{"phase":"TASK","trial_num":98,"trial_length":7,"click_num":2,"RT":1872,"action":1,"reward":-3.2},{"phase":"TASK","trial_num":98,"trial_length":7,"click_num":3,"RT":1480,"action":1,"reward":-3.5},{"phase":"TASK","trial_num":98,"trial_length":7,"click_num":4,"RT":1656.0999999996275,"action":1,"reward":-2.2},{"phase":"TASK","trial_num":98,"trial_length":7,"click_num":5,"RT":1208,"action":0,"reward":-2.2},{"phase":"TASK","trial_num":98,"trial_length":7,"click_num":6,"RT":719.9000000003725,"action":0,"reward":-2.2},{"phase":"TASK","trial_num":98,"trial_length":7,"click_num":7,"RT":679.7999999988824,"action":0,"reward":-2.2},{"phase":"TASK","trial_num":99,"trial_length":5,"click_num":1,"RT":1719.5999999996275,"action":1,"reward":-2.8},{"phase":"TASK","trial_num":99,"trial_length":5,"click_num":2,"RT":1576,"action":1,"reward":-2.9},{"phase":"TASK","trial_num":99,"trial_length":5,"click_num":3,"RT":1744,"action":1,"reward":-2.6},{"phase":"TASK","trial_num":99,"trial_length":5,"click_num":4,"RT":1672,"action":0,"reward":-2.6},{"phase":"TASK","trial_num":99,"trial_length":5,"click_num":5,"RT":712.0999999996275,"action":0,"reward":-2.6},{"phase":"TASK","trial_num":100,"trial_length":9,"click_num":1,"RT":1063.9000000003725,"action":1,"reward":-4},{"phase":"TASK","trial_num":100,"trial_length":9,"click_num":2,"RT":1991.800000000745,"action":1,"reward":-2.5},{"phase":"TASK","trial_num":100,"trial_length":9,"click_num":3,"RT":1712,"action":1,"reward":-1.9},{"phase":"TASK","trial_num":100,"trial_length":9,"click_num":4,"RT":1144,"action":0,"reward":-1.9},{"phase":"TASK","trial_num":100,"trial_length":9,"click_num":5,"RT":735.9000000003725,"action":0,"reward":-1.9},{"phase":"TASK","trial_num":100,"trial_length":9,"click_num":6,"RT":600.6999999992549,"action":0,"reward":-1.9},{"phase":"TASK","trial_num":100,"trial_length":9,"click_num":7,"RT":551.3000000007451,"action":0,"reward":-1.9},{"phase":"TASK","trial_num":100,"trial_length":9,"click_num":8,"RT":552.1999999992549,"action":0,"reward":-1.9},{"phase":"TASK","trial_num":100,"trial_length":9,"click_num":9,"RT":543.8000000007451,"action":0,"reward":-1.9},{"phase":"TASK","trial_num":101,"trial_length":5,"click_num":1,"RT":791.8000000007451,"action":1,"reward":-2.9},{"phase":"TASK","trial_num":101,"trial_length":5,"click_num":2,"RT":1392.0999999996275,"action":1,"reward":-2.3},{"phase":"TASK","trial_num":101,"trial_length":5,"click_num":3,"RT":1447.9000000003725,"action":0,"reward":-2.3},{"phase":"TASK","trial_num":101,"trial_length":5,"click_num":4,"RT":584,"action":0,"reward":-2.3},{"phase":"TASK","trial_num":101,"trial_length":5,"click_num":5,"RT":544.0999999996275,"action":0,"reward":-2.3},{"phase":"TASK","trial_num":102,"trial_length":8,"click_num":1,"RT":823.8000000007451,"action":1,"reward":-2.6},{"phase":"TASK","trial_num":102,"trial_length":8,"click_num":2,"RT":2616,"action":1,"reward":-2.8},{"phase":"TASK","trial_num":102,"trial_length":8,"click_num":3,"RT":1576,"action":1,"reward":-2.7},{"phase":"TASK","trial_num":102,"trial_length":8,"click_num":4,"RT":1784,"action":1,"reward":-3.6},{"phase":"TASK","trial_num":102,"trial_length":8,"click_num":5,"RT":1552,"action":1,"reward":-4.7},{"phase":"TASK","trial_num":102,"trial_length":8,"click_num":6,"RT":2152.0999999996275,"action":1,"reward":-3.5},{"phase":"TASK","trial_num":102,"trial_length":8,"click_num":7,"RT":1464,"action":0,"reward":-2.6},{"phase":"TASK","trial_num":102,"trial_length":8,"click_num":8,"RT":719.8000000007451,"action":0,"reward":-2.6},{"phase":"TASK","trial_num":103,"trial_length":9,"click_num":1,"RT":1872,"action":1,"reward":-3.4},{"phase":"TASK","trial_num":103,"trial_length":9,"click_num":2,"RT":1423.9000000003725,"action":1,"reward":-3.5},{"phase":"TASK","trial_num":103,"trial_length":9,"click_num":3,"RT":1240,"action":1,"reward":-2.2},{"phase":"TASK","trial_num":103,"trial_length":9,"click_num":4,"RT":1280.0999999996275,"action":0,"reward":-2.2},{"phase":"TASK","trial_num":103,"trial_length":9,"click_num":5,"RT":695.9000000003725,"action":0,"reward":-2.2},{"phase":"TASK","trial_num":103,"trial_length":9,"click_num":6,"RT":1343.699999999255,"action":0,"reward":-2.2},{"phase":"TASK","trial_num":103,"trial_length":9,"click_num":7,"RT":744.3000000007451,"action":0,"reward":-2.2},{"phase":"TASK","trial_num":103,"trial_length":9,"click_num":8,"RT":831.9000000003725,"action":0,"reward":-2.2},{"phase":"TASK","trial_num":103,"trial_length":9,"click_num":9,"RT":728.1999999992549,"action":0,"reward":-2.2},{"phase":"TASK","trial_num":104,"trial_length":8,"click_num":1,"RT":967.8000000007451,"action":1,"reward":-3},{"phase":"TASK","trial_num":104,"trial_length":8,"click_num":2,"RT":1615.9000000003725,"action":1,"reward":-3.3},{"phase":"TASK","trial_num":104,"trial_length":8,"click_num":3,"RT":1352.0999999996275,"action":1,"reward":-1.7},{"phase":"TASK","trial_num":104,"trial_length":8,"click_num":4,"RT":1311.9000000003725,"action":0,"reward":-1.7},{"phase":"TASK","trial_num":104,"trial_length":8,"click_num":5,"RT":672.5,"action":0,"reward":-1.7},{"phase":"TASK","trial_num":104,"trial_length":8,"click_num":6,"RT":599.6999999992549,"action":0,"reward":-1.7},{"phase":"TASK","trial_num":104,"trial_length":8,"click_num":7,"RT":632.4000000003725,"action":0,"reward":-1.7},{"phase":"TASK","trial_num":104,"trial_length":8,"click_num":8,"RT":591.4000000003725,"action":0,"reward":-1.7},{"phase":"TASK","trial_num":105,"trial_length":5,"click_num":1,"RT":983.9000000003725,"action":1,"reward":-2.7},{"phase":"TASK","trial_num":105,"trial_length":5,"click_num":2,"RT":3823.9000000003725,"action":1,"reward":-3.9},{"phase":"TASK","trial_num":105,"trial_length":5,"click_num":3,"RT":1320,"action":1,"reward":-3.3},{"phase":"TASK","trial_num":105,"trial_length":5,"click_num":4,"RT":1295.9000000003725,"action":1,"reward":-3.1},{"phase":"TASK","trial_num":105,"trial_length":5,"click_num":5,"RT":1328.0999999996275,"action":0,"reward":-2.7},{"phase":"TASK","trial_num":106,"trial_length":5,"click_num":1,"RT":1039.5,"action":1,"reward":-2.5},{"phase":"TASK","trial_num":106,"trial_length":5,"click_num":2,"RT":3784.0999999996275,"action":0,"reward":-2.5},{"phase":"TASK","trial_num":106,"trial_length":5,"click_num":3,"RT":1087.9000000003725,"action":0,"reward":-2.5},{"phase":"TASK","trial_num":106,"trial_length":5,"click_num":4,"RT":975.9000000003725,"action":0,"reward":-2.5},{"phase":"TASK","trial_num":106,"trial_length":5,"click_num":5,"RT":728.7999999988824,"action":0,"reward":-2.5},{"phase":"TASK","trial_num":107,"trial_length":7,"click_num":1,"RT":935.9000000003725,"action":1,"reward":-3},{"phase":"TASK","trial_num":107,"trial_length":7,"click_num":2,"RT":1143.9000000003725,"action":1,"reward":-2.8},{"phase":"TASK","trial_num":107,"trial_length":7,"click_num":3,"RT":1240.0999999996275,"action":1,"reward":-4.1},{"phase":"TASK","trial_num":107,"trial_length":7,"click_num":4,"RT":1248,"action":1,"reward":-2.1},{"phase":"TASK","trial_num":107,"trial_length":7,"click_num":5,"RT":1168.199999999255,"action":0,"reward":-2.1},{"phase":"TASK","trial_num":107,"trial_length":7,"click_num":6,"RT":1015.8000000007451,"action":0,"reward":-2.1},{"phase":"TASK","trial_num":107,"trial_length":7,"click_num":7,"RT":608,"action":0,"reward":-2.1},{"phase":"TASK","trial_num":108,"trial_length":6,"click_num":1,"RT":807.8000000007451,"action":1,"reward":-2.2},{"phase":"TASK","trial_num":108,"trial_length":6,"click_num":2,"RT":1440,"action":0,"reward":-2.2},{"phase":"TASK","trial_num":108,"trial_length":6,"click_num":3,"RT":664,"action":0,"reward":-2.2},{"phase":"TASK","trial_num":108,"trial_length":6,"click_num":4,"RT":616.0999999996275,"action":0,"reward":-2.2},{"phase":"TASK","trial_num":108,"trial_length":6,"click_num":5,"RT":616.0999999996275,"action":0,"reward":-2.2},{"phase":"TASK","trial_num":108,"trial_length":6,"click_num":6,"RT":775.9000000003725,"action":0,"reward":-2.2},{"phase":"TASK","trial_num":109,"trial_length":8,"click_num":1,"RT":815.5,"action":1,"reward":-2.7},{"phase":"TASK","trial_num":109,"trial_length":8,"click_num":2,"RT":1464,"action":1,"reward":-4.3},{"phase":"TASK","trial_num":109,"trial_length":8,"click_num":3,"RT":1000,"action":1,"reward":-2.1},{"phase":"TASK","trial_num":109,"trial_length":8,"click_num":4,"RT":976,"action":0,"reward":-2.1},{"phase":"TASK","trial_num":109,"trial_length":8,"click_num":5,"RT":640,"action":0,"reward":-2.1},{"phase":"TASK","trial_num":109,"trial_length":8,"click_num":6,"RT":648,"action":0,"reward":-2.1},{"phase":"TASK","trial_num":109,"trial_length":8,"click_num":7,"RT":1176,"action":0,"reward":-2.1},{"phase":"TASK","trial_num":109,"trial_length":8,"click_num":8,"RT":799.9000000003725,"action":0,"reward":-2.1},{"phase":"TASK","trial_num":110,"trial_length":6,"click_num":1,"RT":735.8000000007451,"action":1,"reward":-2.3},{"phase":"TASK","trial_num":110,"trial_length":6,"click_num":2,"RT":1680.0999999996275,"action":0,"reward":-2.3},{"phase":"TASK","trial_num":110,"trial_length":6,"click_num":3,"RT":615.9000000003725,"action":0,"reward":-2.3},{"phase":"TASK","trial_num":110,"trial_length":6,"click_num":4,"RT":920,"action":0,"reward":-2.3},{"phase":"TASK","trial_num":110,"trial_length":6,"click_num":5,"RT":704.0999999996275,"action":0,"reward":-2.3},{"phase":"TASK","trial_num":110,"trial_length":6,"click_num":6,"RT":711.9000000003725,"action":0,"reward":-2.3},{"phase":"TASK","trial_num":111,"trial_length":7,"click_num":1,"RT":1271.800000000745,"action":1,"reward":-2.3},{"phase":"TASK","trial_num":111,"trial_length":7,"click_num":2,"RT":1232,"action":0,"reward":-2.3},{"phase":"TASK","trial_num":111,"trial_length":7,"click_num":3,"RT":680,"action":0,"reward":-2.3},{"phase":"TASK","trial_num":111,"trial_length":7,"click_num":4,"RT":647.9000000003725,"action":0,"reward":-2.3},{"phase":"TASK","trial_num":111,"trial_length":7,"click_num":5,"RT":992.0999999996275,"action":0,"reward":-2.3},{"phase":"TASK","trial_num":111,"trial_length":7,"click_num":6,"RT":752,"action":0,"reward":-2.3},{"phase":"TASK","trial_num":111,"trial_length":7,"click_num":7,"RT":751.9000000003725,"action":0,"reward":-2.3},{"phase":"TASK","trial_num":112,"trial_length":6,"click_num":1,"RT":839.7000000011176,"action":1,"reward":-2.7},{"phase":"TASK","trial_num":112,"trial_length":6,"click_num":2,"RT":4920.199999999255,"action":1,"reward":-3.1},{"phase":"TASK","trial_num":112,"trial_length":6,"click_num":3,"RT":1344.0999999996275,"action":1,"reward":-2.5},{"phase":"TASK","trial_num":112,"trial_length":6,"click_num":4,"RT":1055.9000000003725,"action":0,"reward":-2.5},{"phase":"TASK","trial_num":112,"trial_length":6,"click_num":5,"RT":616,"action":0,"reward":-2.5},{"phase":"TASK","trial_num":112,"trial_length":6,"click_num":6,"RT":607.9000000003725,"action":0,"reward":-2.5},{"phase":"TASK","trial_num":113,"trial_length":9,"click_num":1,"RT":912.3000000007451,"action":1,"reward":-3.5},{"phase":"TASK","trial_num":113,"trial_length":9,"click_num":2,"RT":1999.5999999996275,"action":1,"reward":-3},{"phase":"TASK","trial_num":113,"trial_length":9,"click_num":3,"RT":1183.800000000745,"action":1,"reward":-3.6},{"phase":"TASK","trial_num":113,"trial_length":9,"click_num":4,"RT":1152.0999999996275,"action":1,"reward":-1.9},{"phase":"TASK","trial_num":113,"trial_length":9,"click_num":5,"RT":1160.0999999996275,"action":0,"reward":-1.9},{"phase":"TASK","trial_num":113,"trial_length":9,"click_num":6,"RT":519.9000000003725,"action":0,"reward":-1.9},{"phase":"TASK","trial_num":113,"trial_length":9,"click_num":7,"RT":1048.0999999996275,"action":0,"reward":-1.9},{"phase":"TASK","trial_num":113,"trial_length":9,"click_num":8,"RT":544.1999999992549,"action":0,"reward":-1.9},{"phase":"TASK","trial_num":113,"trial_length":9,"click_num":9,"RT":527.7000000011176,"action":0,"reward":-1.9},{"phase":"TASK","trial_num":114,"trial_length":5,"click_num":1,"RT":719.3000000007451,"action":1,"reward":-2.2},{"phase":"TASK","trial_num":114,"trial_length":5,"click_num":2,"RT":1200,"action":0,"reward":-2.2},{"phase":"TASK","trial_num":114,"trial_length":5,"click_num":3,"RT":727.9000000003725,"action":0,"reward":-2.2},{"phase":"TASK","trial_num":114,"trial_length":5,"click_num":4,"RT":760.1999999992549,"action":0,"reward":-2.2},{"phase":"TASK","trial_num":114,"trial_length":5,"click_num":5,"RT":679.6999999992549,"action":0,"reward":-2.2},{"phase":"TASK","trial_num":115,"trial_length":10,"click_num":1,"RT":1167.800000000745,"action":1,"reward":-3.7},{"phase":"TASK","trial_num":115,"trial_length":10,"click_num":2,"RT":1288,"action":1,"reward":-2.9},{"phase":"TASK","trial_num":115,"trial_length":10,"click_num":3,"RT":992.6999999992549,"action":1,"reward":-2.2},{"phase":"TASK","trial_num":115,"trial_length":10,"click_num":4,"RT":1079.4000000003725,"action":0,"reward":-2.2},{"phase":"TASK","trial_num":115,"trial_length":10,"click_num":5,"RT":607.9000000003725,"action":0,"reward":-2.2},{"phase":"TASK","trial_num":115,"trial_length":10,"click_num":6,"RT":608.0999999996275,"action":0,"reward":-2.2},{"phase":"TASK","trial_num":115,"trial_length":10,"click_num":7,"RT":583.8000000007451,"action":0,"reward":-2.2},{"phase":"TASK","trial_num":115,"trial_length":10,"click_num":8,"RT":592.1999999992549,"action":0,"reward":-2.2},{"phase":"TASK","trial_num":115,"trial_length":10,"click_num":9,"RT":600.1999999992549,"action":0,"reward":-2.2},{"phase":"TASK","trial_num":115,"trial_length":10,"click_num":10,"RT":600.3000000007451,"action":0,"reward":-2.2},{"phase":"TASK","trial_num":116,"trial_length":8,"click_num":1,"RT":1327.800000000745,"action":1,"reward":-3.7},{"phase":"TASK","trial_num":116,"trial_length":8,"click_num":2,"RT":1248.0999999996275,"action":0,"reward":-3.7},{"phase":"TASK","trial_num":116,"trial_length":8,"click_num":3,"RT":1440.5999999996275,"action":1,"reward":-3.1},{"phase":"TASK","trial_num":116,"trial_length":8,"click_num":4,"RT":1631.4000000003725,"action":1,"reward":-2.8},{"phase":"TASK","trial_num":116,"trial_length":8,"click_num":5,"RT":2016,"action":1,"reward":-3.4},{"phase":"TASK","trial_num":116,"trial_length":8,"click_num":6,"RT":3711.9000000003725,"action":1,"reward":-2.6},{"phase":"TASK","trial_num":116,"trial_length":8,"click_num":7,"RT":1167.9000000003725,"action":0,"reward":-2.6},{"phase":"TASK","trial_num":116,"trial_length":8,"click_num":8,"RT":632,"action":0,"reward":-2.6},{"phase":"TASK","trial_num":117,"trial_length":9,"click_num":1,"RT":1079.5999999996275,"action":1,"reward":-3.2},{"phase":"TASK","trial_num":117,"trial_length":9,"click_num":2,"RT":1768.0999999996275,"action":1,"reward":-2.9},{"phase":"TASK","trial_num":117,"trial_length":9,"click_num":3,"RT":1871.9000000003725,"action":1,"reward":-3.8},{"phase":"TASK","trial_num":117,"trial_length":9,"click_num":4,"RT":2416,"action":1,"reward":-3.6},{"phase":"TASK","trial_num":117,"trial_length":9,"click_num":5,"RT":2687.7999999988824,"action":1,"reward":-3.7},{"phase":"TASK","trial_num":117,"trial_length":9,"click_num":6,"RT":1536.300000000745,"action":0,"reward":-2.9},{"phase":"TASK","trial_num":117,"trial_length":9,"click_num":7,"RT":863.9000000003725,"action":0,"reward":-2.9},{"phase":"TASK","trial_num":117,"trial_length":9,"click_num":8,"RT":736.6999999992549,"action":0,"reward":-2.9},{"phase":"TASK","trial_num":117,"trial_length":9,"click_num":9,"RT":671.3000000007451,"action":0,"reward":-2.9},{"phase":"TASK","trial_num":118,"trial_length":6,"click_num":1,"RT":935.8000000007451,"action":1,"reward":-2.9},{"phase":"TASK","trial_num":118,"trial_length":6,"click_num":2,"RT":1288.0999999996275,"action":1,"reward":-3.6},{"phase":"TASK","trial_num":118,"trial_length":6,"click_num":3,"RT":1143.9000000003725,"action":1,"reward":-3.6},{"phase":"TASK","trial_num":118,"trial_length":6,"click_num":4,"RT":1096,"action":1,"reward":-2.7},{"phase":"TASK","trial_num":118,"trial_length":6,"click_num":5,"RT":1535.9000000003725,"action":0,"reward":-2.7},{"phase":"TASK","trial_num":118,"trial_length":6,"click_num":6,"RT":744.2999999988824,"action":0,"reward":-2.7},{"phase":"TASK","trial_num":119,"trial_length":10,"click_num":1,"RT":2799.7000000011176,"action":1,"reward":-3.2},{"phase":"TASK","trial_num":119,"trial_length":10,"click_num":2,"RT":2527.9000000003725,"action":1,"reward":-3.3},{"phase":"TASK","trial_num":119,"trial_length":10,"click_num":3,"RT":1616.199999999255,"action":1,"reward":-2.9},{"phase":"TASK","trial_num":119,"trial_length":10,"click_num":4,"RT":1783.9000000003725,"action":1,"reward":-3.3},{"phase":"TASK","trial_num":119,"trial_length":10,"click_num":5,"RT":1120,"action":1,"reward":-3.2},{"phase":"TASK","trial_num":119,"trial_length":10,"click_num":6,"RT":1232.0999999996275,"action":1,"reward":-2.3},{"phase":"TASK","trial_num":119,"trial_length":10,"click_num":7,"RT":1512,"action":0,"reward":-2.3},{"phase":"TASK","trial_num":119,"trial_length":10,"click_num":8,"RT":1184,"action":0,"reward":-2.3},{"phase":"TASK","trial_num":119,"trial_length":10,"click_num":9,"RT":864,"action":0,"reward":-2.3},{"phase":"TASK","trial_num":119,"trial_length":10,"click_num":10,"RT":743.6999999992549,"action":0,"reward":-2.3},{"phase":"TASK","trial_num":120,"trial_length":5,"click_num":1,"RT":967.8000000007451,"action":1,"reward":-2.8},{"phase":"TASK","trial_num":120,"trial_length":5,"click_num":2,"RT":1296,"action":1,"reward":-2.2},{"phase":"TASK","trial_num":120,"trial_length":5,"click_num":3,"RT":1183.800000000745,"action":0,"reward":-2.2},{"phase":"TASK","trial_num":120,"trial_length":5,"click_num":4,"RT":864.6999999992549,"action":0,"reward":-2.2},{"phase":"TASK","trial_num":120,"trial_length":5,"click_num":5,"RT":671.4000000003725,"action":0,"reward":-2.2},{"phase":"TASK","trial_num":121,"trial_length":5,"click_num":1,"RT":935.8000000007451,"action":1,"reward":-3},{"phase":"TASK","trial_num":121,"trial_length":5,"click_num":2,"RT":1455.9000000003725,"action":1,"reward":-3.7},{"phase":"TASK","trial_num":121,"trial_length":5,"click_num":3,"RT":1096.0999999996275,"action":1,"reward":-3.3},{"phase":"TASK","trial_num":121,"trial_length":5,"click_num":4,"RT":1160,"action":1,"reward":-3},{"phase":"TASK","trial_num":121,"trial_length":5,"click_num":5,"RT":2024,"action":1,"reward":-2.6},{"phase":"TASK","trial_num":122,"trial_length":10,"click_num":1,"RT":1039.800000000745,"action":1,"reward":-2.9},{"phase":"TASK","trial_num":122,"trial_length":10,"click_num":2,"RT":1072.8999999985099,"action":1,"reward":-2.1},{"phase":"TASK","trial_num":122,"trial_length":10,"click_num":3,"RT":1591.800000000745,"action":0,"reward":-2.1},{"phase":"TASK","trial_num":122,"trial_length":10,"click_num":4,"RT":679.5,"action":0,"reward":-2.1},{"phase":"TASK","trial_num":122,"trial_length":10,"click_num":5,"RT":823.9000000003725,"action":0,"reward":-2.1},{"phase":"TASK","trial_num":122,"trial_length":10,"click_num":6,"RT":560,"action":0,"reward":-2.1},{"phase":"TASK","trial_num":122,"trial_length":10,"click_num":7,"RT":543.9000000003725,"action":0,"reward":-2.1},{"phase":"TASK","trial_num":122,"trial_length":10,"click_num":8,"RT":569.1999999992549,"action":0,"reward":-2.1},{"phase":"TASK","trial_num":122,"trial_length":10,"click_num":9,"RT":510.90000000037253,"action":0,"reward":-2.1},{"phase":"TASK","trial_num":122,"trial_length":10,"click_num":10,"RT":560.0999999996275,"action":0,"reward":-2.1},{"phase":"TASK","trial_num":123,"trial_length":6,"click_num":1,"RT":686.9000000003725,"action":1,"reward":-3.3},{"phase":"TASK","trial_num":123,"trial_length":6,"click_num":2,"RT":1368.0999999996275,"action":1,"reward":-3.1},{"phase":"TASK","trial_num":123,"trial_length":6,"click_num":3,"RT":960.7999999988824,"action":1,"reward":-2},{"phase":"TASK","trial_num":123,"trial_length":6,"click_num":4,"RT":1335.800000000745,"action":0,"reward":-2},{"phase":"TASK","trial_num":123,"trial_length":6,"click_num":5,"RT":671.9000000003725,"action":0,"reward":-2},{"phase":"TASK","trial_num":123,"trial_length":6,"click_num":6,"RT":712.0999999996275,"action":0,"reward":-2},{"phase":"TASK","trial_num":124,"trial_length":10,"click_num":1,"RT":743.4000000003725,"action":1,"reward":-3.7},{"phase":"TASK","trial_num":124,"trial_length":10,"click_num":2,"RT":1591.800000000745,"action":1,"reward":-3},{"phase":"TASK","trial_num":124,"trial_length":10,"click_num":3,"RT":968,"action":1,"reward":-3.2},{"phase":"TASK","trial_num":124,"trial_length":10,"click_num":4,"RT":1024,"action":1,"reward":-3.2},{"phase":"TASK","trial_num":124,"trial_length":10,"click_num":5,"RT":1384.199999999255,"action":1,"reward":-2.9},{"phase":"TASK","trial_num":124,"trial_length":10,"click_num":6,"RT":4016.0999999996275,"action":1,"reward":-3.6},{"phase":"TASK","trial_num":124,"trial_length":10,"click_num":7,"RT":1391.9000000003725,"action":1,"reward":-2.4},{"phase":"TASK","trial_num":124,"trial_length":10,"click_num":8,"RT":1048,"action":0,"reward":-2.4},{"phase":"TASK","trial_num":124,"trial_length":10,"click_num":9,"RT":656,"action":0,"reward":-2.4},{"phase":"TASK","trial_num":124,"trial_length":10,"click_num":10,"RT":559.9000000003725,"action":0,"reward":-2.4},{"phase":"TASK","trial_num":125,"trial_length":10,"click_num":1,"RT":1615.5999999996275,"action":1,"reward":-3.8},{"phase":"TASK","trial_num":125,"trial_length":10,"click_num":2,"RT":1264,"action":1,"reward":-2.4},{"phase":"TASK","trial_num":125,"trial_length":10,"click_num":3,"RT":1136,"action":0,"reward":-2.4},{"phase":"TASK","trial_num":125,"trial_length":10,"click_num":4,"RT":648,"action":0,"reward":-2.4},{"phase":"TASK","trial_num":125,"trial_length":10,"click_num":5,"RT":584,"action":0,"reward":-2.4},{"phase":"TASK","trial_num":125,"trial_length":10,"click_num":6,"RT":536,"action":0,"reward":-2.4},{"phase":"TASK","trial_num":125,"trial_length":10,"click_num":7,"RT":520,"action":0,"reward":-2.4},{"phase":"TASK","trial_num":125,"trial_length":10,"click_num":8,"RT":528,"action":0,"reward":-2.4},{"phase":"TASK","trial_num":125,"trial_length":10,"click_num":9,"RT":504,"action":0,"reward":-2.4},{"phase":"TASK","trial_num":125,"trial_length":10,"click_num":10,"RT":1079.9000000003725,"action":0,"reward":-2.4},{"phase":"TASK","trial_num":126,"trial_length":5,"click_num":1,"RT":1007.1000000014901,"action":1,"reward":-2.4},{"phase":"TASK","trial_num":126,"trial_length":5,"click_num":2,"RT":1112,"action":0,"reward":-2.4},{"phase":"TASK","trial_num":126,"trial_length":5,"click_num":3,"RT":648.0999999996275,"action":0,"reward":-2.4},{"phase":"TASK","trial_num":126,"trial_length":5,"click_num":4,"RT":551.9000000003725,"action":0,"reward":-2.4},{"phase":"TASK","trial_num":126,"trial_length":5,"click_num":5,"RT":568.0999999996275,"action":0,"reward":-2.4},{"phase":"TASK","trial_num":127,"trial_length":10,"click_num":1,"RT":863.8000000007451,"action":1,"reward":-2.3},{"phase":"TASK","trial_num":127,"trial_length":10,"click_num":2,"RT":1592.0999999996275,"action":0,"reward":-2.3},{"phase":"TASK","trial_num":127,"trial_length":10,"click_num":3,"RT":640,"action":0,"reward":-2.3},{"phase":"TASK","trial_num":127,"trial_length":10,"click_num":4,"RT":559.9000000003725,"action":0,"reward":-2.3},{"phase":"TASK","trial_num":127,"trial_length":10,"click_num":5,"RT":896,"action":0,"reward":-2.3},{"phase":"TASK","trial_num":127,"trial_length":10,"click_num":6,"RT":672,"action":0,"reward":-2.3},{"phase":"TASK","trial_num":127,"trial_length":10,"click_num":7,"RT":648,"action":0,"reward":-2.3},{"phase":"TASK","trial_num":127,"trial_length":10,"click_num":8,"RT":623.8999999985099,"action":0,"reward":-2.3},{"phase":"TASK","trial_num":127,"trial_length":10,"click_num":9,"RT":640.2000000011176,"action":0,"reward":-2.3},{"phase":"TASK","trial_num":127,"trial_length":10,"click_num":10,"RT":600,"action":0,"reward":-2.3},{"phase":"TASK","trial_num":128,"trial_length":10,"click_num":1,"RT":887.7000000011176,"action":1,"reward":-2.7},{"phase":"TASK","trial_num":128,"trial_length":10,"click_num":2,"RT":1472.699999999255,"action":1,"reward":-2.4},{"phase":"TASK","trial_num":128,"trial_length":10,"click_num":3,"RT":967.2000000011176,"action":0,"reward":-2.4},{"phase":"TASK","trial_num":128,"trial_length":10,"click_num":4,"RT":544.0999999996275,"action":0,"reward":-2.4},{"phase":"TASK","trial_num":128,"trial_length":10,"click_num":5,"RT":528,"action":0,"reward":-2.4},{"phase":"TASK","trial_num":128,"trial_length":10,"click_num":6,"RT":495.90000000037253,"action":0,"reward":-2.4},{"phase":"TASK","trial_num":128,"trial_length":10,"click_num":7,"RT":