[
  {
    "phase": "TASK",
    "condition": "Cond2",
    "trial_num": 1,
    "trial_length": 10,
    "click_num": 1,
    "RT": 6196,
    "action": 1,
    "reward": -2.6
  },
  {
    "phase": "TASK",
    "condition": "Cond2",
    "trial_num": 1,
    "trial_length": 10,
    "click_num": 2,
    "RT": 6472,
    "action": 1,
    "reward": -2.9
  },
  {
    "phase": "TASK",
    "condition": "Cond2",
    "trial_num": 1,
    "trial_length": 10,
    "click_num": 3,
    "RT": 6294,
    "action": 0,
    "reward": -2.6
  },
  {
    "phase": "TASK",
    "condition": "Cond2",
    "trial_num": 1,
    "trial_length": 10,
    "click_num": 4,
    "RT": 9464,
    "action": 1,
    "reward": -3.5
  },
  {
    "phase": "TASK",
    "condition": "Cond2",
    "trial_num": 1,
    "trial_length": 10,
    "click_num": 5,
    "RT": 7031,
    "action": 1,
    "reward": -3.5
  },
  {
    "phase": "TASK",
    "condition": "Cond2",
    "trial_num": 1,
    "trial_length": 10,
    "click_num": 6,
    "RT": 2672,
    "action": 0,
    "reward": -2.6
  },
  {
    "phase": "TASK",
    "condition": "Cond2",
    "trial_num": 1,
    "trial_length": 10,
    "click_num": 7,
    "RT": 2609,
    "action": 1,
    "reward": -2.9
  },
  {
    "phase": "TASK",
    "condition": "Cond2",
    "trial_num": 1,
    "trial_length": 10,
    "click_num": 8,
    "RT": 9425,
    "action": 0,
    "reward": -2.6
  },
  {
    "phase": "TASK",
    "condition": "Cond2",
    "trial_num": 1,
    "trial_length": 10,
    "click_num": 9,
    "RT": 1959,
    "action": 1,
    "reward": -2
  },
  {
    "phase": "TASK",
    "condition": "Cond2",
    "trial_num": 1,
    "trial_length": 10,
    "click_num": 10,
    "RT": 2783,
    "action": 0,
    "reward": -2
  },
  {
    "phase": "TASK",
    "condition": "Cond2",
    "trial_num": 2,
    "trial_length": 8,
    "click_num": 1,
    "RT": 3357,
    "action": 1,
    "reward": -3
  },
  {
    "phase": "TASK",
    "condition": "Cond2",
    "trial_num": 2,
    "trial_length": 8,
    "click_num": 2,
    "RT": 10119,
    "action": 1,
    "reward": -2.6
  },
  {
    "phase": "TASK",
    "condition": "Cond2",
    "trial_num": 2,
    "trial_length": 8,
    "click_num": 3,
    "RT": 2777,
    "action": 1,
    "reward": -4.5
  },
  {
    "phase": "TASK",
    "condition": "Cond2",
    "trial_num": 2,
    "trial_length": 8,
    "click_num": 4,
    "RT": 3960,
    "action": 1,
    "reward": -3.6
  },
  {
    "phase": "TASK",
    "condition": "Cond2",
    "trial_num": 2,
    "trial_length": 8,
    "click_num": 5,
    "RT": 4920,
    "action": 1,
    "reward": -3.1
  },
  {
    "phase": "TASK",
    "condition": "Cond2",
    "trial_num": 2,
    "trial_length": 8,
    "click_num": 6,
    "RT": 1607,
    "action": 0,
    "reward": -2.6
  },
  {
    "phase": "TASK",
    "condition": "Cond2",
    "trial_num": 2,
    "trial_length": 8,
    "click_num": 7,
    "RT": 1632,
    "action": 0,
    "reward": -2.6
  },
  {
    "phase": "TASK",
    "condition": "Cond2",
    "trial_num": 2,
    "trial_length": 8,
    "click_num": 8,
    "RT": 2257,
    "action": 1,
    "reward": -2.2
  },
  {
    "phase": "TASK",
    "condition": "Cond2",
    "trial_num": 3,
    "trial_length": 5,
    "click_num": 1,
    "RT": 5063,
    "action": 1,
    "reward": -2.6
  },
  {
    "phase": "TASK",
    "condition": "Cond2",
    "trial_num": 3,
    "trial_length": 5,
    "click_num": 2,
    "RT": 7143,
    "action": 1,
    "reward": -3.8
  },
  {
    "phase": "TASK",
    "condition": "Cond2",
    "trial_num": 3,
    "trial_length": 5,
    "click_num": 3,
    "RT": 5242,
    "action": 1,
    "reward": -1.4
  },
  {
    "phase": "TASK",
    "condition": "Cond2",
    "trial_num": 3,
    "trial_length": 5,
    "click_num": 4,
    "RT": 2768,
    "action": 0,
    "reward": -1.4
  },
  {
    "phase": "TASK",
    "condition": "Cond2",
    "trial_num": 3,
    "trial_length": 5,
    "click_num": 5,
    "RT": 2199,
    "action": 0,
    "reward": -1.4
  },
  {
    "phase": "TASK",
    "condition": "Cond2",
    "trial_num": 4,
    "trial_length": 10,
    "click_num": 1,
    "RT": 2222,
    "action": 1,
    "reward": -2.6
  },
  {
    "phase": "TASK",
    "condition": "Cond2",
    "trial_num": 4,
    "trial_length": 10,
    "click_num": 2,
    "RT": 2976,
    "action": 1,
    "reward": -3.8
  },
  {
    "phase": "TASK",
    "condition": "Cond2",
    "trial_num": 4,
    "trial_length": 10,
    "click_num": 3,
    "RT": 1663,
    "action": 1,
    "reward": -3.3
  },
  {
    "phase": "TASK",
    "condition": "Cond2",
    "trial_num": 4,
    "trial_length": 10,
    "click_num": 4,
    "RT": 1657,
    "action": 1,
    "reward": -3.5
  },
  {
    "phase": "TASK",
    "condition": "Cond2",
    "trial_num": 4,
    "trial_length": 10,
    "click_num": 5,
    "RT": 1832,
    "action": 1,
    "reward": -3.7
  },
  {
    "phase": "TASK",
    "condition": "Cond2",
    "trial_num": 4,
    "trial_length": 10,
    "click_num": 6,
    "RT": 1792,
    "action": 1,
    "reward": -2.6
  },
  {
    "phase": "TASK",
    "condition": "Cond2",
    "trial_num": 4,
    "trial_length": 10,
    "click_num": 7,
    "RT": 4351,
    "action": 1,
    "reward": -3.2
  },
  {
    "phase": "TASK",
    "condition": "Cond2",
    "trial_num": 4,
    "trial_length": 10,
    "click_num": 8,
    "RT": 1873,
    "action": 0,
    "reward": -2.6
  },
  {
    "phase": "TASK",
    "condition": "Cond2",
    "trial_num": 4,
    "trial_length": 10,
    "click_num": 9,
    "RT": 1384,
    "action": 0,
    "reward": -2.6
  },
  {
    "phase": "TASK",
    "condition": "Cond2",
    "trial_num": 4,
    "trial_length": 10,
    "click_num": 10,
    "RT": 1135,
    "action": 1,
    "reward": -2.9
  },
  {
    "phase": "TASK",
    "condition": "Cond2",
    "trial_num": 5,
    "trial_length": 9,
    "click_num": 1,
    "RT": 2031,
    "action": 1,
    "reward": -3.4
  },
  {
    "phase": "TASK",
    "condition": "Cond2",
    "trial_num": 5,
    "trial_length": 9,
    "click_num": 2,
    "RT": 2616,
    "action": 1,
    "reward": -2.6
  },
  {
    "phase": "TASK",
    "condition": "Cond2",
    "trial_num": 5,
    "trial_length": 9,
    "click_num": 3,
    "RT": 4175,
    "action": 0,
    "reward": -2.6
  },
  {
    "phase": "TASK",
    "condition": "Cond2",
    "trial_num": 5,
    "trial_length": 9,
    "click_num": 4,
    "RT": 1529,
    "action": 0,
    "reward": -2.6
  },
  {
    "phase": "TASK",
    "condition": "Cond2",
    "trial_num": 5,
    "trial_length": 9,
    "click_num": 5,
    "RT": 1439,
    "action": 0,
    "reward": -2.6
  },
  {
    "phase": "TASK",
    "condition": "Cond2",
    "trial_num": 5,
    "trial_length": 9,
    "click_num": 6,
    "RT": 1257,
    "action": 1,
    "reward": -2
  },
  {
    "phase": "TASK",
    "condition": "Cond2",
    "trial_num": 5,
    "trial_length": 9,
    "click_num": 7,
    "RT": 1919,
    "action": 0,
    "reward": -2
  },
  {
    "phase": "TASK",
    "condition": "Cond2",
    "trial_num": 5,
    "trial_length": 9,
    "click_num": 8,
    "RT": 2016,
    "action": 0,
    "reward": -2
  },
  {
    "phase": "TASK",
    "condition": "Cond2",
    "trial_num": 5,
    "trial_length": 9,
    "click_num": 9,
    "RT": 1192,
    "action": 1,
    "reward": -3
  },
  {
    "phase": "TASK",
    "condition": "Cond2",
    "trial_num": 6,
    "trial_length": 9,
    "click_num": 1,
    "RT": 3576,
    "action": 1,
    "reward": -3
  },
  {
    "phase": "TASK",
    "condition": "Cond2",
    "trial_num": 6,
    "trial_length": 9,
    "click_num": 2,
    "RT": 4731,
    "action": 1,
    "reward": -2.4
  },
  {
    "phase": "TASK",
    "condition": "Cond2",
    "trial_num": 6,
    "trial_length": 9,
    "click_num": 3,
    "RT": 2189,
    "action": 0,
    "reward": -2.4
  },
  {
    "phase": "TASK",
    "condition": "Cond2",
    "trial_num": 6,
    "trial_length": 9,
    "click_num": 4,
    "RT": 1632,
    "action": 0,
    "reward": -2.4
  },
  {
    "phase": "TASK",
    "condition": "Cond2",
    "trial_num": 6,
    "trial_length": 9,
    "click_num": 5,
    "RT": 10311,
    "action": 0,
    "reward": -2.4
  },
  {
    "phase": "TASK",
    "condition": "Cond2",
    "trial_num": 6,
    "trial_length": 9,
    "click_num": 6,
    "RT": 1169,
    "action": 0,
    "reward": -2.4
  },
  {
    "phase": "TASK",
    "condition": "Cond2",
    "trial_num": 6,
    "trial_length": 9,
    "click_num": 7,
    "RT": 1153,
    "action": 0,
    "reward": -2.4
  },
  {
    "phase": "TASK",
    "condition": "Cond2",
    "trial_num": 6,
    "trial_length": 9,
    "click_num": 8,
    "RT": 1159,
    "action": 0,
    "reward": -2.4
  },
  {
    "phase": "TASK",
    "condition": "Cond2",
    "trial_num": 6,
    "trial_length": 9,
    "click_num": 9,
    "RT": 1607,
    "action": 0,
    "reward": -2.4
  },
  {
    "phase": "TASK",
    "condition": "Cond2",
    "trial_num": 7,
    "trial_length": 9,
    "click_num": 1,
    "RT": 2093,
    "action": 1,
    "reward": -2.7
  },
  {
    "phase": "TASK",
    "condition": "Cond2",
    "trial_num": 7,
    "trial_length": 9,
    "click_num": 2,
    "RT": 2099,
    "action": 1,
    "reward": -2.8
  },
  {
    "phase": "TASK",
    "condition": "Cond2",
    "trial_num": 7,
    "trial_length": 9,
    "click_num": 3,
    "RT": 2221,
    "action": 1,
    "reward": -2.7
  },
  {
    "phase": "TASK",
    "condition": "Cond2",
    "trial_num": 7,
    "trial_length": 9,
    "click_num": 4,
    "RT": 1800,
    "action": 1,
    "reward": -2.1
  },
  {
    "phase": "TASK",
    "condition": "Cond2",
    "trial_num": 7,
    "trial_length": 9,
    "click_num": 5,
    "RT": 2480,
    "action": 0,
    "reward": -2.1
  },
  {
    "phase": "TASK",
    "condition": "Cond2",
    "trial_num": 7,
    "trial_length": 9,
    "click_num": 6,
    "RT": 1528,
    "action": 0,
    "reward": -2.1
  },
  {
    "phase": "TASK",
    "condition": "Cond2",
    "trial_num": 7,
    "trial_length": 9,
    "click_num": 7,
    "RT": 1463,
    "action": 0,
    "reward": -2.1
  },
  {
    "phase": "TASK",
    "condition": "Cond2",
    "trial_num": 7,
    "trial_length": 9,
    "click_num": 8,
    "RT": 1633,
    "action": 0,
    "reward": -2.1
  },
  {
    "phase": "TASK",
    "condition": "Cond2",
    "trial_num": 7,
    "trial_length": 9,
    "click_num": 9,
    "RT": 2111,
    "action": 0,
    "reward": -2.1
  },
  {
    "phase": "TASK",
    "condition": "Cond2",
    "trial_num": 8,
    "trial_length": 6,
    "click_num": 1,
    "RT": 1886,
    "action": 1,
    "reward": -4
  },
  {
    "phase": "TASK",
    "condition": "Cond2",
    "trial_num": 8,
    "trial_length": 6,
    "click_num": 2,
    "RT": 1952,
    "action": 1,
    "reward": -3.1
  },
  {
    "phase": "TASK",
    "condition": "Cond2",
    "trial_num": 8,
    "trial_length": 6,
    "click_num": 3,
    "RT": 2199,
    "action": 1,
    "reward": -3.1
  },
  {
    "phase": "TASK",
    "condition": "Cond2",
    "trial_num": 8,
    "trial_length": 6,
    "click_num": 4,
    "RT": 3545,
    "action": 1,
    "reward": -3.2
  },
  {
    "phase": "TASK",
    "condition": "Cond2",
    "trial_num": 8,
    "trial_length": 6,
    "click_num": 5,
    "RT": 2160,
    "action": 1,
    "reward": -3.6
  },
  {
    "phase": "TASK",
    "condition": "Cond2",
    "trial_num": 8,
    "trial_length": 6,
    "click_num": 6,
    "RT": 2545,
    "action": 0,
    "reward": -3.1
  },
  {
    "phase": "TASK",
    "condition": "Cond2",
    "trial_num": 9,
    "trial_length": 5,
    "click_num": 1,
    "RT": 1479,
    "action": 1,
    "reward": -3.4
  },
  {
    "phase": "TASK",
    "condition": "Cond2",
    "trial_num": 9,
    "trial_length": 5,
    "click_num": 2,
    "RT": 1985,
    "action": 1,
    "reward": -2.9
  },
  {
    "phase": "TASK",
    "condition": "Cond2",
    "trial_num": 9,
    "trial_length": 5,
    "click_num": 3,
    "RT": 1704,
    "action": 1,
    "reward": -2.4
  },
  {
    "phase": "TASK",
    "condition": "Cond2",
    "trial_num": 9,
    "trial_length": 5,
    "click_num": 4,
    "RT": 2447,
    "action": 0,
    "reward": -2.4
  },
  {
    "phase": "TASK",
    "condition": "Cond2",
    "trial_num": 9,
    "trial_length": 5,
    "click_num": 5,
    "RT": 1522,
    "action": 0,
    "reward": -2.4
  },
  {
    "phase": "TASK",
    "condition": "Cond2",
    "trial_num": 10,
    "trial_length": 8,
    "click_num": 1,
    "RT": 1601,
    "action": 1,
    "reward": -3.2
  },
  {
    "phase": "TASK",
    "condition": "Cond2",
    "trial_num": 10,
    "trial_length": 8,
    "click_num": 2,
    "RT": 1704,
    "action": 1,
    "reward": -2.4
  },
  {
    "phase": "TASK",
    "condition": "Cond2",
    "trial_num": 10,
    "trial_length": 8,
    "click_num": 3,
    "RT": 2025,
    "action": 0,
    "reward": -2.4
  },
  {
    "phase": "TASK",
    "condition": "Cond2",
    "trial_num": 10,
    "trial_length": 8,
    "click_num": 4,
    "RT": 1704,
    "action": 1,
    "reward": -2.5
  },
  {
    "phase": "TASK",
    "condition": "Cond2",
    "trial_num": 10,
    "trial_length": 8,
    "click_num": 5,
    "RT": 1970,
    "action": 0,
    "reward": -2.4
  },
  {
    "phase": "TASK",
    "condition": "Cond2",
    "trial_num": 10,
    "trial_length": 8,
    "click_num": 6,
    "RT": 1214,
    "action": 0,
    "reward": -2.4
  },
  {
    "phase": "TASK",
    "condition": "Cond2",
    "trial_num": 10,
    "trial_length": 8,
    "click_num": 7,
    "RT": 1008,
    "action": 1,
    "reward": -2.9
  },
  {
    "phase": "TASK",
    "condition": "Cond2",
    "trial_num": 10,
    "trial_length": 8,
    "click_num": 8,
    "RT": 1383,
    "action": 0,
    "reward": -2.4
  },
  {
    "phase": "TASK",
    "condition": "Cond2",
    "trial_num": 11,
    "trial_length": 7,
    "click_num": 1,
    "RT": 1565,
    "action": 1,
    "reward": -2.9
  },
  {
    "phase": "TASK",
    "condition": "Cond2",
    "trial_num": 11,
    "trial_length": 7,
    "click_num": 2,
    "RT": 1664,
    "action": 1,
    "reward": -3.9
  },
  {
    "phase": "TASK",
    "condition": "Cond2",
    "trial_num": 11,
    "trial_length": 7,
    "click_num": 3,
    "RT": 1449,
    "action": 1,
    "reward": -3.1
  },
  {
    "phase": "TASK",
    "condition": "Cond2",
    "trial_num": 11,
    "trial_length": 7,
    "click_num": 4,
    "RT": 1455,
    "action": 1,
    "reward": -2.7
  },
  {
    "phase": "TASK",
    "condition": "Cond2",
    "trial_num": 11,
    "trial_length": 7,
    "click_num": 5,
    "RT": 1904,
    "action": 0,
    "reward": -2.7
  },
  {
    "phase": "TASK",
    "condition": "Cond2",
    "trial_num": 11,
    "trial_length": 7,
    "click_num": 6,
    "RT": 1472,
    "action": 0,
    "reward": -2.7
  },
  {
    "phase": "TASK",
    "condition": "Cond2",
    "trial_num": 11,
    "trial_length": 7,
    "click_num": 7,
    "RT": 1480,
    "action": 0,
    "reward": -2.7
  },
  {
    "phase": "TASK",
    "condition": "Cond2",
    "trial_num": 12,
    "trial_length": 9,
    "click_num": 1,
    "RT": 1759,
    "action": 1,
    "reward": -2.9
  },
  {
    "phase": "TASK",
    "condition": "Cond2",
    "trial_num": 12,
    "trial_length": 9,
    "click_num": 2,
    "RT": 1760,
    "action": 1,
    "reward": -3
  },
  {
    "phase": "TASK",
    "condition": "Cond2",
    "trial_num": 12,
    "trial_length": 9,
    "click_num": 3,
    "RT": 1736,
    "action": 1,
    "reward": -2.1
  },
  {
    "phase": "TASK",
    "condition": "Cond2",
    "trial_num": 12,
    "trial_length": 9,
    "click_num": 4,
    "RT": 1960,
    "action": 0,
    "reward": -2.1
  },
  {
    "phase": "TASK",
    "condition": "Cond2",
    "trial_num": 12,
    "trial_length": 9,
    "click_num": 5,
    "RT": 1200,
    "action": 0,
    "reward": -2.1
  },
  {
    "phase": "TASK",
    "condition": "Cond2",
    "trial_num": 12,
    "trial_length": 9,
    "click_num": 6,
    "RT": 1424,
    "action": 0,
    "reward": -2.1
  },
  {
    "phase": "TASK",
    "condition": "Cond2",
    "trial_num": 12,
    "trial_length": 9,
    "click_num": 7,
    "RT": 1320,
    "action": 0,
    "reward": -2.1
  },
  {
    "phase": "TASK",
    "condition": "Cond2",
    "trial_num": 12,
    "trial_length": 9,
    "click_num": 8,
    "RT": 1519,
    "action": 0,
    "reward": -2.1
  },
  {
    "phase": "TASK",
    "condition": "Cond2",
    "trial_num": 12,
    "trial_length": 9,
    "click_num": 9,
    "RT": 1444,
    "action": 0,
    "reward": -2.1
  },
  {
    "phase": "TASK",
    "condition": "Cond2",
    "trial_num": 13,
    "trial_length": 7,
    "click_num": 1,
    "RT": 1583,
    "action": 1,
    "reward": -3.4
  },
  {
    "phase": "TASK",
    "condition": "Cond2",
    "trial_num": 13,
    "trial_length": 7,
    "click_num": 2,
    "RT": 5455,
    "action": 1,
    "reward": -2.1
  },
  {
    "phase": "TASK",
    "condition": "Cond2",
    "trial_num": 13,
    "trial_length": 7,
    "click_num": 3,
    "RT": 1936,
    "action": 0,
    "reward": -2.1
  },
  {
    "phase": "TASK",
    "condition": "Cond2",
    "trial_num": 13,
    "trial_length": 7,
    "click_num": 4,
    "RT": 1345,
    "action": 0,
    "reward": -2.1
  },
  {
    "phase": "TASK",
    "condition": "Cond2",
    "trial_num": 13,
    "trial_length": 7,
    "click_num": 5,
    "RT": 1127,
    "action": 0,
    "reward": -2.1
  },
  {
    "phase": "TASK",
    "condition": "Cond2",
    "trial_num": 13,
    "trial_length": 7,
    "click_num": 6,
    "RT": 1480,
    "action": 0,
    "reward": -2.1
  },
  {
    "phase": "TASK",
    "condition": "Cond2",
    "trial_num": 13,
    "trial_length": 7,
    "click_num": 7,
    "RT": 1813,
    "action": 0,
    "reward": -2.1
  },
  {
    "phase": "TASK",
    "condition": "Cond2",
    "trial_num": 14,
    "trial_length": 7,
    "click_num": 1,
    "RT": 1584,
    "action": 1,
    "reward": -2.9
  },
  {
    "phase": "TASK",
    "condition": "Cond2",
    "trial_num": 14,
    "trial_length": 7,
    "click_num": 2,
    "RT": 1696,
    "action": 1,
    "reward": -2.3
  },
  {
    "phase": "TASK",
    "condition": "Cond2",
    "trial_num": 14,
    "trial_length": 7,
    "click_num": 3,
    "RT": 1887,
    "action": 0,
    "reward": -2.3
  },
  {
    "phase": "TASK",
    "condition": "Cond2",
    "trial_num": 14,
    "trial_length": 7,
    "click_num": 4,
    "RT": 1449,
    "action": 0,
    "reward": -2.3
  },
  {
    "phase": "TASK",
    "condition": "Cond2",
    "trial_num": 14,
    "trial_length": 7,
    "click_num": 5,
    "RT": 1800,
    "action": 0,
    "reward": -2.3
  },
  {
    "phase": "TASK",
    "condition": "Cond2",
    "trial_num": 14,
    "trial_length": 7,
    "click_num": 6,
    "RT": 1288,
    "action": 0,
    "reward": -2.3
  },
  {
    "phase": "TASK",
    "condition": "Cond2",
    "trial_num": 14,
    "trial_length": 7,
    "click_num": 7,
    "RT": 1168,
    "action": 0,
    "reward": -2.3
  },
  {
    "phase": "TASK",
    "condition": "Cond2",
    "trial_num": 15,
    "trial_length": 8,
    "click_num": 1,
    "RT": 1581,
    "action": 1,
    "reward": -3.2
  },
  {
    "phase": "TASK",
    "condition": "Cond2",
    "trial_num": 15,
    "trial_length": 8,
    "click_num": 2,
    "RT": 1623,
    "action": 1,
    "reward": -2
  },
  {
    "phase": "TASK",
    "condition": "Cond2",
    "trial_num": 15,
    "trial_length": 8,
    "click_num": 3,
    "RT": 1833,
    "action": 0,
    "reward": -2
  },
  {
    "phase": "TASK",
    "condition": "Cond2",
    "trial_num": 15,
    "trial_length": 8,
    "click_num": 4,
    "RT": 1297,
    "action": 0,
    "reward": -2
  },
  {
    "phase": "TASK",
    "condition": "Cond2",
    "trial_num": 15,
    "trial_length": 8,
    "click_num": 5,
    "RT": 1591,
    "action": 0,
    "reward": -2
  },
  {
    "phase": "TASK",
    "condition": "Cond2",
    "trial_num": 15,
    "trial_length": 8,
    "click_num": 6,
    "RT": 1328,
    "action": 0,
    "reward": -2
  },
  {
    "phase": "TASK",
    "condition": "Cond2",
    "trial_num": 15,
    "trial_length": 8,
    "click_num": 7,
    "RT": 2724,
    "action": 0,
    "reward": -2
  },
  {
    "phase": "TASK",
    "condition": "Cond2",
    "trial_num": 15,
    "trial_length": 8,
    "click_num": 8,
    "RT": 1236,
    "action": 0,
    "reward": -2
  },
  {
    "phase": "TASK",
    "condition": "Cond2",
    "trial_num": 16,
    "trial_length": 7,
    "click_num": 1,
    "RT": 1446,
    "action": 1,
    "reward": -2.9
  },
  {
    "phase": "TASK",
    "condition": "Cond2",
    "trial_num": 16,
    "trial_length": 7,
    "click_num": 2,
    "RT": 3064,
    "action": 1,
    "reward": -2.8
  },
  {
    "phase": "TASK",
    "condition": "Cond2",
    "trial_num": 16,
    "trial_length": 7,
    "click_num": 3,
    "RT": 1584,
    "action": 1,
    "reward": -2.8
  },
  {
    "phase": "TASK",
    "condition": "Cond2",
    "trial_num": 16,
    "trial_length": 7,
    "click_num": 4,
    "RT": 1400,
    "action": 1,
    "reward": -4.4
  },
  {
    "phase": "TASK",
    "condition": "Cond2",
    "trial_num": 16,
    "trial_length": 7,
    "click_num": 5,
    "RT": 2800,
    "action": 1,
    "reward": -2.3
  },
  {
    "phase": "TASK",
    "condition": "Cond2",
    "trial_num": 16,
    "trial_length": 7,
    "click_num": 6,
    "RT": 1671,
    "action": 0,
    "reward": -2.3
  },
  {
    "phase": "TASK",
    "condition": "Cond2",
    "trial_num": 16,
    "trial_length": 7,
    "click_num": 7,
    "RT": 1305,
    "action": 0,
    "reward": -2.3
  },
  {
    "phase": "TASK",
    "condition": "Cond2",
    "trial_num": 17,
    "trial_length": 10,
    "click_num": 1,
    "RT": 1551,
    "action": 1,
    "reward": -2.9
  },
  {
    "phase": "TASK",
    "condition": "Cond2",
    "trial_num": 17,
    "trial_length": 10,
    "click_num": 2,
    "RT": 1617,
    "action": 1,
    "reward": -2.8
  },
  {
    "phase": "TASK",
    "condition": "Cond2",
    "trial_num": 17,
    "trial_length": 10,
    "click_num": 3,
    "RT": 1552,
    "action": 1,
    "reward": -1.9
  },
  {
    "phase": "TASK",
    "condition": "Cond2",
    "trial_num": 17,
    "trial_length": 10,
    "click_num": 4,
    "RT": 1951,
    "action": 0,
    "reward": -1.9
  },
  {
    "phase": "TASK",
    "condition": "Cond2",
    "trial_num": 17,
    "trial_length": 10,
    "click_num": 5,
    "RT": 1561,
    "action": 0,
    "reward": -1.9
  },
  {
    "phase": "TASK",
    "condition": "Cond2",
    "trial_num": 17,
    "trial_length": 10,
    "click_num": 6,
    "RT": 1608,
    "action": 0,
    "reward": -1.9
  },
  {
    "phase": "TASK",
    "condition": "Cond2",
    "trial_num": 17,
    "trial_length": 10,
    "click_num": 7,
    "RT": 1904,
    "action": 0,
    "reward": -1.9
  },
  {
    "phase": "TASK",
    "condition": "Cond2",
    "trial_num": 17,
    "trial_length": 10,
    "click_num": 8,
    "RT": 1640,
    "action": 0,
    "reward": -1.9
  },
  {
    "phase": "TASK",
    "condition": "Cond2",
    "trial_num": 17,
    "trial_length": 10,
    "click_num": 9,
    "RT": 1279,
    "action": 0,
    "reward": -1.9
  },
  {
    "phase": "TASK",
    "condition": "Cond2",
    "trial_num": 17,
    "trial_length": 10,
    "click_num": 10,
    "RT": 3009,
    "action": 0,
    "reward": -1.9
  },
  {
    "phase": "TASK",
    "condition": "Cond2",
    "trial_num": 18,
    "trial_length": 6,
    "click_num": 1,
    "RT": 21733,
    "action": 1,
    "reward": -2.5
  },
  {
    "phase": "TASK",
    "condition": "Cond2",
    "trial_num": 18,
    "trial_length": 6,
    "click_num": 2,
    "RT": 2450,
    "action": 1,
    "reward": -3.3
  },
  {
    "phase": "TASK",
    "condition": "Cond2",
    "trial_num": 18,
    "trial_length": 6,
    "click_num": 3,
    "RT": 1417,
    "action": 1,
    "reward": -3.2
  },
  {
    "phase": "TASK",
    "condition": "Cond2",
    "trial_num": 18,
    "trial_length": 6,
    "click_num": 4,
    "RT": 2189,
    "action": 0,
    "reward": -2.5
  },
  {
    "phase": "TASK",
    "condition": "Cond2",
    "trial_num": 18,
    "trial_length": 6,
    "click_num": 5,
    "RT": 1100,
    "action": 0,
    "reward": -2.5
  },
  {
    "phase": "TASK",
    "condition": "Cond2",
    "trial_num": 18,
    "trial_length": 6,
    "click_num": 6,
    "RT": 1022,
    "action": 0,
    "reward": -2.5
  },
  {
    "phase": "TASK",
    "condition": "Cond2",
    "trial_num": 19,
    "trial_length": 10,
    "click_num": 1,
    "RT": 1296,
    "action": 1,
    "reward": -3.5
  },
  {
    "phase": "TASK",
    "condition": "Cond2",
    "trial_num": 19,
    "trial_length": 10,
    "click_num": 2,
    "RT": 1479,
    "action": 1,
    "reward": -2.5
  },
  {
    "phase": "TASK",
    "condition": "Cond2",
    "trial_num": 19,
    "trial_length": 10,
    "click_num": 3,
    "RT": 2041,
    "action": 1,
    "reward": -2.9
  },
  {
    "phase": "TASK",
    "condition": "Cond2",
    "trial_num": 19,
    "trial_length": 10,
    "click_num": 4,
    "RT": 1488,
    "action": 1,
    "reward": -2
  },
  {
    "phase": "TASK",
    "condition": "Cond2",
    "trial_num": 19,
    "trial_length": 10,
    "click_num": 5,
    "RT": 1631,
    "action": 0,
    "reward": -2
  },
  {
    "phase": "TASK",
    "condition": "Cond2",
    "trial_num": 19,
    "trial_length": 10,
    "click_num": 6,
    "RT": 1368,
    "action": 0,
    "reward": -2
  },
  {
    "phase": "TASK",
    "condition": "Cond2",
    "trial_num": 19,
    "trial_length": 10,
    "click_num": 7,
    "RT": 1009,
    "action": 0,
    "reward": -2
  },
  {
    "phase": "TASK",
    "condition": "Cond2",
    "trial_num": 19,
    "trial_length": 10,
    "click_num": 8,
    "RT": 1023,
    "action": 0,
    "reward": -2
  },
  {
    "phase": "TASK",
    "condition": "Cond2",
    "trial_num": 19,
    "trial_length": 10,
    "click_num": 9,
    "RT": 1096,
    "action": 0,
    "reward": -2
  },
  {
    "phase": "TASK",
    "condition": "Cond2",
    "trial_num": 19,
    "trial_length": 10,
    "click_num": 10,
    "RT": 2024,
    "action": 0,
    "reward": -2
  },
  {
    "phase": "TASK",
    "condition": "Cond2",
    "trial_num": 20,
    "trial_length": 9,
    "click_num": 1,
    "RT": 1737,
    "action": 1,
    "reward": -3.3
  },
  {
    "phase": "TASK",
    "condition": "Cond2",
    "trial_num": 20,
    "trial_length": 9,
    "click_num": 2,
    "RT": 1711,
    "action": 1,
    "reward": -2.9
  },
  {
    "phase": "TASK",
    "condition": "Cond2",
    "trial_num": 20,
    "trial_length": 9,
    "click_num": 3,
    "RT": 1345,
    "action": 1,
    "reward": -3.5
  },
  {
    "phase": "TASK",
    "condition": "Cond2",
    "trial_num": 20,
    "trial_length": 9,
    "click_num": 4,
    "RT": 1375,
    "action": 1,
    "reward": -3.5
  },
  {
    "phase": "TASK",
    "condition": "Cond2",
    "trial_num": 20,
    "trial_length": 9,
    "click_num": 5,
    "RT": 1456,
    "action": 1,
    "reward": -2.5
  },
  {
    "phase": "TASK",
    "condition": "Cond2",
    "trial_num": 20,
    "trial_length": 9,
    "click_num": 6,
    "RT": 1832,
    "action": 0,
    "reward": -2.5
  },
  {
    "phase": "TASK",
    "condition": "Cond2",
    "trial_num": 20,
    "trial_length": 9,
    "click_num": 7,
    "RT": 1215,
    "action": 0,
    "reward": -2.5
  },
  {
    "phase": "TASK",
    "condition": "Cond2",
    "trial_num": 20,
    "trial_length": 9,
    "click_num": 8,
    "RT": 1225,
    "action": 0,
    "reward": -2.5
  },
  {
    "phase": "TASK",
    "condition": "Cond2",
    "trial_num": 20,
    "trial_length": 9,
    "click_num": 9,
    "RT": 1120,
    "action": 0,
    "reward": -2.5
  },
  {
    "phase": "TASK",
    "condition": "Cond2",
    "trial_num": 21,
    "trial_length": 6,
    "click_num": 1,
    "RT": 1755,
    "action": 1,
    "reward": -3.9
  },
  {
    "phase": "TASK",
    "condition": "Cond2",
    "trial_num": 21,
    "trial_length": 6,
    "click_num": 2,
    "RT": 1349,
    "action": 1,
    "reward": -2.9
  },
  {
    "phase": "TASK",
    "condition": "Cond2",
    "trial_num": 21,
    "trial_length": 6,
    "click_num": 3,
    "RT": 1648,
    "action": 1,
    "reward": -3.3
  },
  {
    "phase": "TASK",
    "condition": "Cond2",
    "trial_num": 21,
    "trial_length": 6,
    "click_num": 4,
    "RT": 1488,
    "action": 1,
    "reward": -3.5
  },
  {
    "phase": "TASK",
    "condition": "Cond2",
    "trial_num": 21,
    "trial_length": 6,
    "click_num": 5,
    "RT": 1617,
    "action": 1,
    "reward": -3.8
  },
  {
    "phase": "TASK",
    "condition": "Cond2",
    "trial_num": 21,
    "trial_length": 6,
    "click_num": 6,
    "RT": 1735,
    "action": 0,
    "reward": -2.9
  },
  {
    "phase": "TASK",
    "condition": "Cond2",
    "trial_num": 22,
    "trial_length": 10,
    "click_num": 1,
    "RT": 1568,
    "action": 1,
    "reward": -2.7
  },
  {
    "phase": "TASK",
    "condition": "Cond2",
    "trial_num": 22,
    "trial_length": 10,
    "click_num": 2,
    "RT": 1808,
    "action": 1,
    "reward": -2.5
  },
  {
    "phase": "TASK",
    "condition": "Cond2",
    "trial_num": 22,
    "trial_length": 10,
    "click_num": 3,
    "RT": 2040,
    "action": 1,
    "reward": -3.3
  },
  {
    "phase": "TASK",
    "condition": "Cond2",
    "trial_num": 22,
    "trial_length": 10,
    "click_num": 4,
    "RT": 1638,
    "action": 0,
    "reward": -2.5
  },
  {
    "phase": "TASK",
    "condition": "Cond2",
    "trial_num": 22,
    "trial_length": 10,
    "click_num": 5,
    "RT": 1307,
    "action": 0,
    "reward": -2.5
  },
  {
    "phase": "TASK",
    "condition": "Cond2",
    "trial_num": 22,
    "trial_length": 10,
    "click_num": 6,
    "RT": 1279,
    "action": 0,
    "reward": -2.5
  },
  {
    "phase": "TASK",
    "condition": "Cond2",
    "trial_num": 22,
    "trial_length": 10,
    "click_num": 7,
    "RT": 1135,
    "action": 0,
    "reward": -2.5
  },
  {
    "phase": "TASK",
    "condition": "Cond2",
    "trial_num": 22,
    "trial_length": 10,
    "click_num": 8,
    "RT": 1463,
    "action": 0,
    "reward": -2.5
  },
  {
    "phase": "TASK",
    "condition": "Cond2",
    "trial_num": 22,
    "trial_length": 10,
    "click_num": 9,
    "RT": 1665,
    "action": 1,
    "reward": -2.3
  },
  {
    "phase": "TASK",
    "condition": "Cond2",
    "trial_num": 22,
    "trial_length": 10,
    "click_num": 10,
    "RT": 2079,
    "action": 0,
    "reward": -2.3
  },
  {
    "phase": "TASK",
    "condition": "Cond2",
    "trial_num": 23,
    "trial_length": 8,
    "click_num": 1,
    "RT": 1567,
    "action": 1,
    "reward": -3.2
  },
  {
    "phase": "TASK",
    "condition": "Cond2",
    "trial_num": 23,
    "trial_length": 8,
    "click_num": 2,
    "RT": 1663,
    "action": 1,
    "reward": -3.6
  },
  {
    "phase": "TASK",
    "condition": "Cond2",
    "trial_num": 23,
    "trial_length": 8,
    "click_num": 3,
    "RT": 2899,
    "action": 1,
    "reward": -3.1
  },
  {
    "phase": "TASK",
    "condition": "Cond2",
    "trial_num": 23,
    "trial_length": 8,
    "click_num": 4,
    "RT": 1621,
    "action": 1,
    "reward": -3.6
  },
  {
    "phase": "TASK",
    "condition": "Cond2",
    "trial_num": 23,
    "trial_length": 8,
    "click_num": 5,
    "RT": 1352,
    "action": 1,
    "reward": -3.4
  },
  {
    "phase": "TASK",
    "condition": "Cond2",
    "trial_num": 23,
    "trial_length": 8,
    "click_num": 6,
    "RT": 1592,
    "action": 1,
    "reward": -3.2
  },
  {
    "phase": "TASK",
    "condition": "Cond2",
    "trial_num": 23,
    "trial_length": 8,
    "click_num": 7,
    "RT": 1896,
    "action": 1,
    "reward": -2.8
  },
  {
    "phase": "TASK",
    "condition": "Cond2",
    "trial_num": 23,
    "trial_length": 8,
    "click_num": 8,
    "RT": 2024,
    "action": 0,
    "reward": -2.8
  },
  {
    "phase": "TASK",
    "condition": "Cond2",
    "trial_num": 24,
    "trial_length": 10,
    "click_num": 1,
    "RT": 1302,
    "action": 1,
    "reward": -2.9
  },
  {
    "phase": "TASK",
    "condition": "Cond2",
    "trial_num": 24,
    "trial_length": 10,
    "click_num": 2,
    "RT": 1455,
    "action": 1,
    "reward": -3.6
  },
  {
    "phase": "TASK",
    "condition": "Cond2",
    "trial_num": 24,
    "trial_length": 10,
    "click_num": 3,
    "RT": 1601,
    "action": 1,
    "reward": -3.1
  },
  {
    "phase": "TASK",
    "condition": "Cond2",
    "trial_num": 24,
    "trial_length": 10,
    "click_num": 4,
    "RT": 1896,
    "action": 1,
    "reward": -3.4
  },
  {
    "phase": "TASK",
    "condition": "Cond2",
    "trial_num": 24,
    "trial_length": 10,
    "click_num": 5,
    "RT": 1856,
    "action": 1,
    "reward": -3.2
  },
  {
    "phase": "TASK",
    "condition": "Cond2",
    "trial_num": 24,
    "trial_length": 10,
    "click_num": 6,
    "RT": 1952,
    "action": 1,
    "reward": -3.9
  },
  {
    "phase": "TASK",
    "condition": "Cond2",
    "trial_num": 24,
    "trial_length": 10,
    "click_num": 7,
    "RT": 2080,
    "action": 1,
    "reward": -3.6
  },
  {
    "phase": "TASK",
    "condition": "Cond2",
    "trial_num": 24,
    "trial_length": 10,
    "click_num": 8,
    "RT": 1790,
    "action": 1,
    "reward": -2.9
  },
  {
    "phase": "TASK",
    "condition": "Cond2",
    "trial_num": 24,
    "trial_length": 10,
    "click_num": 9,
    "RT": 1881,
    "action": 1,
    "reward": -2.6
  },
  {
    "phase": "TASK",
    "condition": "Cond2",
    "trial_num": 24,
    "trial_length": 10,
    "click_num": 10,
    "RT": 1857,
    "action": 0,
    "reward": -2.6
  },
  {
    "phase": "TASK",
    "condition": "Cond2",
    "trial_num": 25,
    "trial_length": 10,
    "click_num": 1,
    "RT": 1376,
    "action": 1,
    "reward": -2.3
  },
  {
    "phase": "TASK",
    "condition": "Cond2",
    "trial_num": 25,
    "trial_length": 10,
    "click_num": 2,
    "RT": 1991,
    "action": 1,
    "reward": -3.3
  },
  {
    "phase": "TASK",
    "condition": "Cond2",
    "trial_num": 25,
    "trial_length": 10,
    "click_num": 3,
    "RT": 1311,
    "action": 0,
    "reward": -2.3
  },
  {
    "phase": "TASK",
    "condition": "Cond2",
    "trial_num": 25,
    "trial_length": 10,
    "click_num": 4,
    "RT": 1426,
    "action": 0,
    "reward": -2.3
  },
  {
    "phase": "TASK",
    "condition": "Cond2",
    "trial_num": 25,
    "trial_length": 10,
    "click_num": 5,
    "RT": 1040,
    "action": 0,
    "reward": -2.3
  },
  {
    "phase": "TASK",
    "condition": "Cond2",
    "trial_num": 25,
    "trial_length": 10,
    "click_num": 6,
    "RT": 1235,
    "action": 0,
    "reward": -2.3
  },
  {
    "phase": "TASK",
    "condition": "Cond2",
    "trial_num": 25,
    "trial_length": 10,
    "click_num": 7,
    "RT": 965,
    "action": 0,
    "reward": -2.3
  },
  {
    "phase": "TASK",
    "condition": "Cond2",
    "trial_num": 25,
    "trial_length": 10,
    "click_num": 8,
    "RT": 1144,
    "action": 0,
    "reward": -2.3
  },
  {
    "phase": "TASK",
    "condition": "Cond2",
    "trial_num": 25,
    "trial_length": 10,
    "click_num": 9,
    "RT": 1191,
    "action": 0,
    "reward": -2.3
  },
  {
    "phase": "TASK",
    "condition": "Cond2",
    "trial_num": 25,
    "trial_length": 10,
    "click_num": 10,
    "RT": 1489,
    "action": 0,
    "reward": -2.3
  },
  {
    "phase": "TASK",
    "condition": "Cond2",
    "trial_num": 26,
    "trial_length": 7,
    "click_num": 1,
    "RT": 2464,
    "action": 1,
    "reward": -4.5
  },
  {
    "phase": "TASK",
    "condition": "Cond2",
    "trial_num": 26,
    "trial_length": 7,
    "click_num": 2,
    "RT": 1583,
    "action": 1,
    "reward": -3.2
  },
  {
    "phase": "TASK",
    "condition": "Cond2",
    "trial_num": 26,
    "trial_length": 7,
    "click_num": 3,
    "RT": 1663,
    "action": 1,
    "reward": -3.5
  },
  {
    "phase": "TASK",
    "condition": "Cond2",
    "trial_num": 26,
    "trial_length": 7,
    "click_num": 4,
    "RT": 1444,
    "action": 1,
    "reward": -3.1
  },
  {
    "phase": "TASK",
    "condition": "Cond2",
    "trial_num": 26,
    "trial_length": 7,
    "click_num": 5,
    "RT": 1839,
    "action": 1,
    "reward": -2.7
  },
  {
    "phase": "TASK",
    "condition": "Cond2",
    "trial_num": 26,
    "trial_length": 7,
    "click_num": 6,
    "RT": 2215,
    "action": 1,
    "reward": -2.6
  },
  {
    "phase": "TASK",
    "condition": "Cond2",
    "trial_num": 26,
    "trial_length": 7,
    "click_num": 7,
    "RT": 4736,
    "action": 0,
    "reward": -2.6
  },
  {
    "phase": "TASK",
    "condition": "Cond2",
    "trial_num": 27,
    "trial_length": 5,
    "click_num": 1,
    "RT": 1224,
    "action": 1,
    "reward": -3.4
  },
  {
    "phase": "TASK",
    "condition": "Cond2",
    "trial_num": 27,
    "trial_length": 5,
    "click_num": 2,
    "RT": 1336,
    "action": 1,
    "reward": -3.1
  },
  {
    "phase": "TASK",
    "condition": "Cond2",
    "trial_num": 27,
    "trial_length": 5,
    "click_num": 3,
    "RT": 1255,
    "action": 1,
    "reward": -2.5
  },
  {
    "phase": "TASK",
    "condition": "Cond2",
    "trial_num": 27,
    "trial_length": 5,
    "click_num": 4,
    "RT": 1799,
    "action": 0,
    "reward": -2.5
  },
  {
    "phase": "TASK",
    "condition": "Cond2",
    "trial_num": 27,
    "trial_length": 5,
    "click_num": 5,
    "RT": 1065,
    "action": 0,
    "reward": -2.5
  },
  {
    "phase": "TASK",
    "condition": "Cond2",
    "trial_num": 28,
    "trial_length": 8,
    "click_num": 1,
    "RT": 1271,
    "action": 1,
    "reward": -3.8
  },
  {
    "phase": "TASK",
    "condition": "Cond2",
    "trial_num": 28,
    "trial_length": 8,
    "click_num": 2,
    "RT": 1392,
    "action": 1,
    "reward": -2.4
  },
  {
    "phase": "TASK",
    "condition": "Cond2",
    "trial_num": 28,
    "trial_length": 8,
    "click_num": 3,
    "RT": 1703,
    "action": 0,
    "reward": -2.4
  },
  {
    "phase": "TASK",
    "condition": "Cond2",
    "trial_num": 28,
    "trial_length": 8,
    "click_num": 4,
    "RT": 1345,
    "action": 0,
    "reward": -2.4
  },
  {
    "phase": "TASK",
    "condition": "Cond2",
    "trial_num": 28,
    "trial_length": 8,
    "click_num": 5,
    "RT": 1104,
    "action": 0,
    "reward": -2.4
  },
  {
    "phase": "TASK",
    "condition": "Cond2",
    "trial_num": 28,
    "trial_length": 8,
    "click_num": 6,
    "RT": 1008,
    "action": 0,
    "reward": -2.4
  },
  {
    "phase": "TASK",
    "condition": "Cond2",
    "trial_num": 28,
    "trial_length": 8,
    "click_num": 7,
    "RT": 1016,
    "action": 0,
    "reward": -2.4
  },
  {
    "phase": "TASK",
    "condition": "Cond2",
    "trial_num": 28,
    "trial_length": 8,
    "click_num": 8,
    "RT": 1136,
    "action": 0,
    "reward": -2.4
  },
  {
    "phase": "TASK",
    "condition": "Cond2",
    "trial_num": 29,
    "trial_length": 7,
    "click_num": 1,
    "RT": 1351,
    "action": 1,
    "reward": -2.1
  },
  {
    "phase": "TASK",
    "condition": "Cond2",
    "trial_num": 29,
    "trial_length": 7,
    "click_num": 2,
    "RT": 1512,
    "action": 0,
    "reward": -2.1
  },
  {
    "phase": "TASK",
    "condition": "Cond2",
    "trial_num": 29,
    "trial_length": 7,
    "click_num": 3,
    "RT": 983,
    "action": 0,
    "reward": -2.1
  },
  {
    "phase": "TASK",
    "condition": "Cond2",
    "trial_num": 29,
    "trial_length": 7,
    "click_num": 4,
    "RT": 913,
    "action": 0,
    "reward": -2.1
  },
  {
    "phase": "TASK",
    "condition": "Cond2",
    "trial_num": 29,
    "trial_length": 7,
    "click_num": 5,
    "RT": 1088,
    "action": 0,
    "reward": -2.1
  },
  {
    "phase": "TASK",
    "condition": "Cond2",
    "trial_num": 29,
    "trial_length": 7,
    "click_num": 6,
    "RT": 1032,
    "action": 0,
    "reward": -2.1
  },
  {
    "phase": "TASK",
    "condition": "Cond2",
    "trial_num": 29,
    "trial_length": 7,
    "click_num": 7,
    "RT": 1088,
    "action": 0,
    "reward": -2.1
  },
  {
    "phase": "TASK",
    "condition": "Cond2",
    "trial_num": 30,
    "trial_length": 8,
    "click_num": 1,
    "RT": 1568,
    "action": 1,
    "reward": -2.2
  },
  {
    "phase": "TASK",
    "condition": "Cond2",
    "trial_num": 30,
    "trial_length": 8,
    "click_num": 2,
    "RT": 2039,
    "action": 0,
    "reward": -2.2
  },
  {
    "phase": "TASK",
    "condition": "Cond2",
    "trial_num": 30,
    "trial_length": 8,
    "click_num": 3,
    "RT": 1184,
    "action": 0,
    "reward": -2.2
  },
  {
    "phase": "TASK",
    "condition": "Cond2",
    "trial_num": 30,
    "trial_length": 8,
    "click_num": 4,
    "RT": 1033,
    "action": 0,
    "reward": -2.2
  },
  {
    "phase": "TASK",
    "condition": "Cond2",
    "trial_num": 30,
    "trial_length": 8,
    "click_num": 5,
    "RT": 992,
    "action": 0,
    "reward": -2.2
  },
  {
    "phase": "TASK",
    "condition": "Cond2",
    "trial_num": 30,
    "trial_length": 8,
    "click_num": 6,
    "RT": 1031,
    "action": 0,
    "reward": -2.2
  },
  {
    "phase": "TASK",
    "condition": "Cond2",
    "trial_num": 30,
    "trial_length": 8,
    "click_num": 7,
    "RT": 1032,
    "action": 0,
    "reward": -2.2
  },
  {
    "phase": "TASK",
    "condition": "Cond2",
    "trial_num": 30,
    "trial_length": 8,
    "click_num": 8,
    "RT": 1057,
    "action": 0,
    "reward": -2.2
  },
  {
    "phase": "TASK",
    "condition": "Cond2",
    "trial_num": 31,
    "trial_length": 10,
    "click_num": 1,
    "RT": 1595,
    "action": 1,
    "reward": -2.6
  },
  {
    "phase": "TASK",
    "condition": "Cond2",
    "trial_num": 31,
    "trial_length": 10,
    "click_num": 2,
    "RT": 1493,
    "action": 1,
    "reward": -3.9
  },
  {
    "phase": "TASK",
    "condition": "Cond2",
    "trial_num": 31,
    "trial_length": 10,
    "click_num": 3,
    "RT": 1240,
    "action": 1,
    "reward": -3.1
  },
  {
    "phase": "TASK",
    "condition": "Cond2",
    "trial_num": 31,
    "trial_length": 10,
    "click_num": 4,
    "RT": 1320,
    "action": 1,
    "reward": -2
  },
  {
    "phase": "TASK",
    "condition": "Cond2",
    "trial_num": 31,
    "trial_length": 10,
    "click_num": 5,
    "RT": 1672,
    "action": 0,
    "reward": -2
  },
  {
    "phase": "TASK",
    "condition": "Cond2",
    "trial_num": 31,
    "trial_length": 10,
    "click_num": 6,
    "RT": 1064,
    "action": 0,
    "reward": -2
  },
  {
    "phase": "TASK",
    "condition": "Cond2",
    "trial_num": 31,
    "trial_length": 10,
    "click_num": 7,
    "RT": 895,
    "action": 0,
    "reward": -2
  },
  {
    "phase": "TASK",
    "condition": "Cond2",
    "trial_num": 31,
    "trial_length": 10,
    "click_num": 8,
    "RT": 1209,
    "action": 0,
    "reward": -2
  },
  {
    "phase": "TASK",
    "condition": "Cond2",
    "trial_num": 31,
    "trial_length": 10,
    "click_num": 9,
    "RT": 1011,
    "action": 0,
    "reward": -2
  },
  {
    "phase": "TASK",
    "condition": "Cond2",
    "trial_num": 31,
    "trial_length": 10,
    "click_num": 10,
    "RT": 1301,
    "action": 0,
    "reward": -2
  },
  {
    "phase": "TASK",
    "condition": "Cond2",
    "trial_num": 32,
    "trial_length": 9,
    "click_num": 1,
    "RT": 1894,
    "action": 1,
    "reward": -2.5
  },
  {
    "phase": "TASK",
    "condition": "Cond2",
    "trial_num": 32,
    "trial_length": 9,
    "click_num": 2,
    "RT": 1603,
    "action": 1,
    "reward": -3
  },
  {
    "phase": "TASK",
    "condition": "Cond2",
    "trial_num": 32,
    "trial_length": 9,
    "click_num": 3,
    "RT": 1405,
    "action": 1,
    "reward": -2.5
  },
  {
    "phase": "TASK",
    "condition": "Cond2",
    "trial_num": 32,
    "trial_length": 9,
    "click_num": 4,
    "RT": 2159,
    "action": 1,
    "reward": -3.2
  },
  {
    "phase": "TASK",
    "condition": "Cond2",
    "trial_num": 32,
    "trial_length": 9,
    "click_num": 5,
    "RT": 1344,
    "action": 1,
    "reward": -3.1
  },
  {
    "phase": "TASK",
    "condition": "Cond2",
    "trial_num": 32,
    "trial_length": 9,
    "click_num": 6,
    "RT": 1376,
    "action": 1,
    "reward": -3.4
  },
  {
    "phase": "TASK",
    "condition": "Cond2",
    "trial_num": 32,
    "trial_length": 9,
    "click_num": 7,
    "RT": 1376,
    "action": 0,
    "reward": -2.5
  },
  {
    "phase": "TASK",
    "condition": "Cond2",
    "trial_num": 32,
    "trial_length": 9,
    "click_num": 8,
    "RT": 952,
    "action": 0,
    "reward": -2.5
  },
  {
    "phase": "TASK",
    "condition": "Cond2",
    "trial_num": 32,
    "trial_length": 9,
    "click_num": 9,
    "RT": 968,
    "action": 0,
    "reward": -2.5
  },
  {
    "phase": "TASK",
    "condition": "Cond2",
    "trial_num": 33,
    "trial_length": 7,
    "click_num": 1,
    "RT": 1182,
    "action": 1,
    "reward": -3.6
  },
  {
    "phase": "TASK",
    "condition": "Cond2",
    "trial_num": 33,
    "trial_length": 7,
    "click_num": 2,
    "RT": 1192,
    "action": 1,
    "reward": -2.9
  },
  {
    "phase": "TASK",
    "condition": "Cond2",
    "trial_num": 33,
    "trial_length": 7,
    "click_num": 3,
    "RT": 1320,
    "action": 1,
    "reward": -3.3
  },
  {
    "phase": "TASK",
    "condition": "Cond2",
    "trial_num": 33,
    "trial_length": 7,
    "click_num": 4,
    "RT": 1296,
    "action": 1,
    "reward": -4.2
  },
  {
    "phase": "TASK",
    "condition": "Cond2",
    "trial_num": 33,
    "trial_length": 7,
    "click_num": 5,
    "RT": 1159,
    "action": 1,
    "reward": -3
  },
  {
    "phase": "TASK",
    "condition": "Cond2",
    "trial_num": 33,
    "trial_length": 7,
    "click_num": 6,
    "RT": 1176,
    "action": 1,
    "reward": -3.5
  },
  {
    "phase": "TASK",
    "condition": "Cond2",
    "trial_num": 33,
    "trial_length": 7,
    "click_num": 7,
    "RT": 2064,
    "action": 0,
    "reward": -2.9
  },
  {
    "phase": "TASK",
    "condition": "Cond2",
    "trial_num": 34,
    "trial_length": 6,
    "click_num": 1,
    "RT": 1472,
    "action": 1,
    "reward": -3.3
  },
  {
    "phase": "TASK",
    "condition": "Cond2",
    "trial_num": 34,
    "trial_length": 6,
    "click_num": 2,
    "RT": 1280,
    "action": 1,
    "reward": -2.6
  },
  {
    "phase": "TASK",
    "condition": "Cond2",
    "trial_num": 34,
    "trial_length": 6,
    "click_num": 3,
    "RT": 1438,
    "action": 1,
    "reward": -4.4
  },
  {
    "phase": "TASK",
    "condition": "Cond2",
    "trial_num": 34,
    "trial_length": 6,
    "click_num": 4,
    "RT": 1969,
    "action": 0,
    "reward": -2.6
  },
  {
    "phase": "TASK",
    "condition": "Cond2",
    "trial_num": 34,
    "trial_length": 6,
    "click_num": 5,
    "RT": 1009,
    "action": 0,
    "reward": -2.6
  },
  {
    "phase": "TASK",
    "condition": "Cond2",
    "trial_num": 34,
    "trial_length": 6,
    "click_num": 6,
    "RT": 1055,
    "action": 0,
    "reward": -2.6
  },
  {
    "phase": "TASK",
    "condition": "Cond2",
    "trial_num": 35,
    "trial_length": 8,
    "click_num": 1,
    "RT": 1112,
    "action": 1,
    "reward": -3.1
  },
  {
    "phase": "TASK",
    "condition": "Cond2",
    "trial_num": 35,
    "trial_length": 8,
    "click_num": 2,
    "RT": 1399,
    "action": 1,
    "reward": -3.3
  },
  {
    "phase": "TASK",
    "condition": "Cond2",
    "trial_num": 35,
    "trial_length": 8,
    "click_num": 3,
    "RT": 1576,
    "action": 1,
    "reward": -3.1
  },
  {
    "phase": "TASK",
    "condition": "Cond2",
    "trial_num": 35,
    "trial_length": 8,
    "click_num": 4,
    "RT": 1647,
    "action": 1,
    "reward": -3
  },
  {
    "phase": "TASK",
    "condition": "Cond2",
    "trial_num": 35,
    "trial_length": 8,
    "click_num": 5,
    "RT": 1465,
    "action": 1,
    "reward": -2.9
  },
  {
    "phase": "TASK",
    "condition": "Cond2",
    "trial_num": 35,
    "trial_length": 8,
    "click_num": 6,
    "RT": 1386,
    "action": 1,
    "reward": -3.6
  },
  {
    "phase": "TASK",
    "condition": "Cond2",
    "trial_num": 35,
    "trial_length": 8,
    "click_num": 7,
    "RT": 1335,
    "action": 1,
    "reward": -3.6
  },
  {
    "phase": "TASK",
    "condition": "Cond2",
    "trial_num": 35,
    "trial_length": 8,
    "click_num": 8,
    "RT": 1544,
    "action": 0,
    "reward": -2.9
  },
  {
    "phase": "TASK",
    "condition": "Cond2",
    "trial_num": 36,
    "trial_length": 9,
    "click_num": 1,
    "RT": 1261,
    "action": 1,
    "reward": -2.7
  },
  {
    "phase": "TASK",
    "condition": "Cond2",
    "trial_num": 36,
    "trial_length": 9,
    "click_num": 2,
    "RT": 1320,
    "action": 1,
    "reward": -2.8
  },
  {
    "phase": "TASK",
    "condition": "Cond2",
    "trial_num": 36,
    "trial_length": 9,
    "click_num": 3,
    "RT": 1168,
    "action": 1,
    "reward": -3
  },
  {
    "phase": "TASK",
    "condition": "Cond2",
    "trial_num": 36,
    "trial_length": 9,
    "click_num": 4,
    "RT": 1420,
    "action": 1,
    "reward": -3.3
  },
  {
    "phase": "TASK",
    "condition": "Cond2",
    "trial_num": 36,
    "trial_length": 9,
    "click_num": 5,
    "RT": 1390,
    "action": 0,
    "reward": -2.7
  },
  {
    "phase": "TASK",
    "condition": "Cond2",
    "trial_num": 36,
    "trial_length": 9,
    "click_num": 6,
    "RT": 1143,
    "action": 0,
    "reward": -2.7
  },
  {
    "phase": "TASK",
    "condition": "Cond2",
    "trial_num": 36,
    "trial_length": 9,
    "click_num": 7,
    "RT": 1064,
    "action": 0,
    "reward": -2.7
  },
  {
    "phase": "TASK",
    "condition": "Cond2",
    "trial_num": 36,
    "trial_length": 9,
    "click_num": 8,
    "RT": 1435,
    "action": 1,
    "reward": -2
  },
  {
    "phase": "TASK",
    "condition": "Cond2",
    "trial_num": 36,
    "trial_length": 9,
    "click_num": 9,
    "RT": 1605,
    "action": 0,
    "reward": -2
  },
  {
    "phase": "TASK",
    "condition": "Cond2",
    "trial_num": 37,
    "trial_length": 5,
    "click_num": 1,
    "RT": 1214,
    "action": 1,
    "reward": -3.1
  },
  {
    "phase": "TASK",
    "condition": "Cond2",
    "trial_num": 37,
    "trial_length": 5,
    "click_num": 2,
    "RT": 3575,
    "action": 1,
    "reward": -2.9
  },
  {
    "phase": "TASK",
    "condition": "Cond2",
    "trial_num": 37,
    "trial_length": 5,
    "click_num": 3,
    "RT": 1616,
    "action": 0,
    "reward": -2.9
  },
  {
    "phase": "TASK",
    "condition": "Cond2",
    "trial_num": 37,
    "trial_length": 5,
    "click_num": 4,
    "RT": 1234,
    "action": 1,
    "reward": -3
  },
  {
    "phase": "TASK",
    "condition": "Cond2",
    "trial_num": 37,
    "trial_length": 5,
    "click_num": 5,
    "RT": 2495,
    "action": 1,
    "reward": -2.8
  },
  {
    "phase": "TASK",
    "condition": "Cond2",
    "trial_num": 38,
    "trial_length": 7,
    "click_num": 1,
    "RT": 1294,
    "action": 1,
    "reward": -3.9
  },
  {
    "phase": "TASK",
    "condition": "Cond2",
    "trial_num": 38,
    "trial_length": 7,
    "click_num": 2,
    "RT": 1705,
    "action": 1,
    "reward": -3
  },
  {
    "phase": "TASK",
    "condition": "Cond2",
    "trial_num": 38,
    "trial_length": 7,
    "click_num": 3,
    "RT": 1295,
    "action": 1,
    "reward": -3
  },
  {
    "phase": "TASK",
    "condition": "Cond2",
    "trial_num": 38,
    "trial_length": 7,
    "click_num": 4,
    "RT": 1351,
    "action": 1,
    "reward": -3.2
  },
  {
    "phase": "TASK",
    "condition": "Cond2",
    "trial_num": 38,
    "trial_length": 7,
    "click_num": 5,
    "RT": 1353,
    "action": 1,
    "reward": -3.8
  },
  {
    "phase": "TASK",
    "condition": "Cond2",
    "trial_num": 38,
    "trial_length": 7,
    "click_num": 6,
    "RT": 2384,
    "action": 0,
    "reward": -3
  },
  {
    "phase": "TASK",
    "condition": "Cond2",
    "trial_num": 38,
    "trial_length": 7,
    "click_num": 7,
    "RT": 984,
    "action": 0,
    "reward": -3
  },
  {
    "phase": "TASK",
    "condition": "Cond2",
    "trial_num": 39,
    "trial_length": 5,
    "click_num": 1,
    "RT": 1150,
    "action": 1,
    "reward": -3.6
  },
  {
    "phase": "TASK",
    "condition": "Cond2",
    "trial_num": 39,
    "trial_length": 5,
    "click_num": 2,
    "RT": 2321,
    "action": 1,
    "reward": -2.6
  },
  {
    "phase": "TASK",
    "condition": "Cond2",
    "trial_num": 39,
    "trial_length": 5,
    "click_num": 3,
    "RT": 1752,
    "action": 0,
    "reward": -2.6
  },
  {
    "phase": "TASK",
    "condition": "Cond2",
    "trial_num": 39,
    "trial_length": 5,
    "click_num": 4,
    "RT": 1032,
    "action": 0,
    "reward": -2.6
  },
  {
    "phase": "TASK",
    "condition": "Cond2",
    "trial_num": 39,
    "trial_length": 5,
    "click_num": 5,
    "RT": 1063,
    "action": 0,
    "reward": -2.6
  },
  {
    "phase": "TASK",
    "condition": "Cond2",
    "trial_num": 40,
    "trial_length": 6,
    "click_num": 1,
    "RT": 1552,
    "action": 1,
    "reward": -2.8
  },
  {
    "phase": "TASK",
    "condition": "Cond2",
    "trial_num": 40,
    "trial_length": 6,
    "click_num": 2,
    "RT": 1735,
    "action": 1,
    "reward": -3.3
  },
  {
    "phase": "TASK",
    "condition": "Cond2",
    "trial_num": 40,
    "trial_length": 6,
    "click_num": 3,
    "RT": 1305,
    "action": 1,
    "reward": -3.3
  },
  {
    "phase": "TASK",
    "condition": "Cond2",
    "trial_num": 40,
    "trial_length": 6,
    "click_num": 4,
    "RT": 1366,
    "action": 1,
    "reward": -2.4
  },
  {
    "phase": "TASK",
    "condition": "Cond2",
    "trial_num": 40,
    "trial_length": 6,
    "click_num": 5,
    "RT": 1681,
    "action": 0,
    "reward": -2.4
  },
  {
    "phase": "TASK",
    "condition": "Cond2",
    "trial_num": 40,
    "trial_length": 6,
    "click_num": 6,
    "RT": 1219,
    "action": 0,
    "reward": -2.4
  },
  {
    "phase": "TASK",
    "condition": "Cond2",
    "trial_num": 41,
    "trial_length": 8,
    "click_num": 1,
    "RT": 1093,
    "action": 1,
    "reward": -3.8
  },
  {
    "phase": "TASK",
    "condition": "Cond2",
    "trial_num": 41,
    "trial_length": 8,
    "click_num": 2,
    "RT": 1385,
    "action": 1,
    "reward": -3.7
  },
  {
    "phase": "TASK",
    "condition": "Cond2",
    "trial_num": 41,
    "trial_length": 8,
    "click_num": 3,
    "RT": 1545,
    "action": 1,
    "reward": -3.4
  },
  {
    "phase": "TASK",
    "condition": "Cond2",
    "trial_num": 41,
    "trial_length": 8,
    "click_num": 4,
    "RT": 1575,
    "action": 1,
    "reward": -4.2
  },
  {
    "phase": "TASK",
    "condition": "Cond2",
    "trial_num": 41,
    "trial_length": 8,
    "click_num": 5,
    "RT": 1408,
    "action": 1,
    "reward": -2.9
  },
  {
    "phase": "TASK",
    "condition": "Cond2",
    "trial_num": 41,
    "trial_length": 8,
    "click_num": 6,
    "RT": 1482,
    "action": 0,
    "reward": -2.9
  },
  {
    "phase": "TASK",
    "condition": "Cond2",
    "trial_num": 41,
    "trial_length": 8,
    "click_num": 7,
    "RT": 1038,
    "action": 0,
    "reward": -2.9
  },
  {
    "phase": "TASK",
    "condition": "Cond2",
    "trial_num": 41,
    "trial_length": 8,
    "click_num": 8,
    "RT": 1120,
    "action": 0,
    "reward": -2.9
  },
  {
    "phase": "TASK",
    "condition": "Cond2",
    "trial_num": 42,
    "trial_length": 7,
    "click_num": 1,
    "RT": 1441,
    "action": 1,
    "reward": -2.8
  },
  {
    "phase": "TASK",
    "condition": "Cond2",
    "trial_num": 42,
    "trial_length": 7,
    "click_num": 2,
    "RT": 1435,
    "action": 1,
    "reward": -2.9
  },
  {
    "phase": "TASK",
    "condition": "Cond2",
    "trial_num": 42,
    "trial_length": 7,
    "click_num": 3,
    "RT": 1257,
    "action": 1,
    "reward": -4.1
  },
  {
    "phase": "TASK",
    "condition": "Cond2",
    "trial_num": 42,
    "trial_length": 7,
    "click_num": 4,
    "RT": 1445,
    "action": 1,
    "reward": -3.4
  },
  {
    "phase": "TASK",
    "condition": "Cond2",
    "trial_num": 42,
    "trial_length": 7,
    "click_num": 5,
    "RT": 1484,
    "action": 1,
    "reward": -2.7
  },
  {
    "phase": "TASK",
    "condition": "Cond2",
    "trial_num": 42,
    "trial_length": 7,
    "click_num": 6,
    "RT": 1927,
    "action": 1,
    "reward": -3.4
  },
  {
    "phase": "TASK",
    "condition": "Cond2",
    "trial_num": 42,
    "trial_length": 7,
    "click_num": 7,
    "RT": 1632,
    "action": 0,
    "reward": -2.7
  },
  {
    "phase": "TASK",
    "condition": "Cond2",
    "trial_num": 43,
    "trial_length": 5,
    "click_num": 1,
    "RT": 1391,
    "action": 1,
    "reward": -3.2
  },
  {
    "phase": "TASK",
    "condition": "Cond2",
    "trial_num": 43,
    "trial_length": 5,
    "click_num": 2,
    "RT": 1497,
    "action": 1,
    "reward": -3
  },
  {
    "phase": "TASK",
    "condition": "Cond2",
    "trial_num": 43,
    "trial_length": 5,
    "click_num": 3,
    "RT": 1279,
    "action": 1,
    "reward": -3.3
  },
  {
    "phase": "TASK",
    "condition": "Cond2",
    "trial_num": 43,
    "trial_length": 5,
    "click_num": 4,
    "RT": 1375,
    "action": 1,
    "reward": -3.2
  },
  {
    "phase": "TASK",
    "condition": "Cond2",
    "trial_num": 43,
    "trial_length": 5,
    "click_num": 5,
    "RT": 1330,
    "action": 1,
    "reward": -2.5
  },
  {
    "phase": "TASK",
    "condition": "Cond2",
    "trial_num": 44,
    "trial_length": 8,
    "click_num": 1,
    "RT": 1358,
    "action": 1,
    "reward": -2.9
  },
  {
    "phase": "TASK",
    "condition": "Cond2",
    "trial_num": 44,
    "trial_length": 8,
    "click_num": 2,
    "RT": 1427,
    "action": 1,
    "reward": -2.1
  },
  {
    "phase": "TASK",
    "condition": "Cond2",
    "trial_num": 44,
    "trial_length": 8,
    "click_num": 3,
    "RT": 2408,
    "action": 0,
    "reward": -2.1
  },
  {
    "phase": "TASK",
    "condition": "Cond2",
    "trial_num": 44,
    "trial_length": 8,
    "click_num": 4,
    "RT": 1397,
    "action": 0,
    "reward": -2.1
  },
  {
    "phase": "TASK",
    "condition": "Cond2",
    "trial_num": 44,
    "trial_length": 8,
    "click_num": 5,
    "RT": 1008,
    "action": 0,
    "reward": -2.1
  },
  {
    "phase": "TASK",
    "condition": "Cond2",
    "trial_num": 44,
    "trial_length": 8,
    "click_num": 6,
    "RT": 968,
    "action": 0,
    "reward": -2.1
  },
  {
    "phase": "TASK",
    "condition": "Cond2",
    "trial_num": 44,
    "trial_length": 8,
    "click_num": 7,
    "RT": 1008,
    "action": 0,
    "reward": -2.1
  },
  {
    "phase": "TASK",
    "condition": "Cond2",
    "trial_num": 44,
    "trial_length": 8,
    "click_num": 8,
    "RT": 1232,
    "action": 0,
    "reward": -2.1
  },
  {
    "phase": "TASK",
    "condition": "Cond2",
    "trial_num": 45,
    "trial_length": 7,
    "click_num": 1,
    "RT": 1526,
    "action": 1,
    "reward": -3.6
  },
  {
    "phase": "TASK",
    "condition": "Cond2",
    "trial_num": 45,
    "trial_length": 7,
    "click_num": 2,
    "RT": 1672,
    "action": 1,
    "reward": -3.3
  },
  {
    "phase": "TASK",
    "condition": "Cond2",
    "trial_num": 45,
    "trial_length": 7,
    "click_num": 3,
    "RT": 1168,
    "action": 1,
    "reward": -2.7
  },
  {
    "phase": "TASK",
    "condition": "Cond2",
    "trial_num": 45,
    "trial_length": 7,
    "click_num": 4,
    "RT": 1415,
    "action": 1,
    "reward": -3.2
  },
  {
    "phase": "TASK",
    "condition": "Cond2",
    "trial_num": 45,
    "trial_length": 7,
    "click_num": 5,
    "RT": 1800,
    "action": 1,
    "reward": -2.9
  },
  {
    "phase": "TASK",
    "condition": "Cond2",
    "trial_num": 45,
    "trial_length": 7,
    "click_num": 6,
    "RT": 2010,
    "action": 1,
    "reward": -2.6
  },
  {
    "phase": "TASK",
    "condition": "Cond2",
    "trial_num": 45,
    "trial_length": 7,
    "click_num": 7,
    "RT": 1631,
    "action": 0,
    "reward": -2.6
  },
  {
    "phase": "TASK",
    "condition": "Cond2",
    "trial_num": 46,
    "trial_length": 8,
    "click_num": 1,
    "RT": 1158,
    "action": 1,
    "reward": -3.6
  },
  {
    "phase": "TASK",
    "condition": "Cond2",
    "trial_num": 46,
    "trial_length": 8,
    "click_num": 2,
    "RT": 1592,
    "action": 1,
    "reward": -2.8
  },
  {
    "phase": "TASK",
    "condition": "Cond2",
    "trial_num": 46,
    "trial_length": 8,
    "click_num": 3,
    "RT": 1271,
    "action": 1,
    "reward": -2.8
  },
  {
    "phase": "TASK",
    "condition": "Cond2",
    "trial_num": 46,
    "trial_length": 8,
    "click_num": 4,
    "RT": 1456,
    "action": 1,
    "reward": -2.3
  },
  {
    "phase": "TASK",
    "condition": "Cond2",
    "trial_num": 46,
    "trial_length": 8,
    "click_num": 5,
    "RT": 1667,
    "action": 0,
    "reward": -2.3
  },
  {
    "phase": "TASK",
    "condition": "Cond2",
    "trial_num": 46,
    "trial_length": 8,
    "click_num": 6,
    "RT": 1102,
    "action": 0,
    "reward": -2.3
  },
  {
    "phase": "TASK",
    "condition": "Cond2",
    "trial_num": 46,
    "trial_length": 8,
    "click_num": 7,
    "RT": 1162,
    "action": 0,
    "reward": -2.3
  },
  {
    "phase": "TASK",
    "condition": "Cond2",
    "trial_num": 46,
    "trial_length": 8,
    "click_num": 8,
    "RT": 1102,
    "action": 0,
    "reward": -2.3
  },
  {
    "phase": "TASK",
    "condition": "Cond2",
    "trial_num": 47,
    "trial_length": 6,
    "click_num": 1,
    "RT": 1582,
    "action": 1,
    "reward": -3.7
  },
  {
    "phase": "TASK",
    "condition": "Cond2",
    "trial_num": 47,
    "trial_length": 6,
    "click_num": 2,
    "RT": 1186,
    "action": 1,
    "reward": -2.9
  },
  {
    "phase": "TASK",
    "condition": "Cond2",
    "trial_num": 47,
    "trial_length": 6,
    "click_num": 3,
    "RT": 1366,
    "action": 1,
    "reward": -3.5
  },
  {
    "phase": "TASK",
    "condition": "Cond2",
    "trial_num": 47,
    "trial_length": 6,
    "click_num": 4,
    "RT": 1255,
    "action": 1,
    "reward": -3.9
  },
  {
    "phase": "TASK",
    "condition": "Cond2",
    "trial_num": 47,
    "trial_length": 6,
    "click_num": 5,
    "RT": 1560,
    "action": 1,
    "reward": -4.3
  },
  {
    "phase": "TASK",
    "condition": "Cond2",
    "trial_num": 47,
    "trial_length": 6,
    "click_num": 6,
    "RT": 1384,
    "action": 0,
    "reward": -2.9
  },
  {
    "phase": "TASK",
    "condition": "Cond2",
    "trial_num": 48,
    "trial_length": 9,
    "click_num": 1,
    "RT": 1215,
    "action": 1,
    "reward": -2.7
  },
  {
    "phase": "TASK",
    "condition": "Cond2",
    "trial_num": 48,
    "trial_length": 9,
    "click_num": 2,
    "RT": 1416,
    "action": 1,
    "reward": -2.7
  },
  {
    "phase": "TASK",
    "condition": "Cond2",
    "trial_num": 48,
    "trial_length": 9,
    "click_num": 3,
    "RT": 1392,
    "action": 1,
    "reward": -3
  },
  {
    "phase": "TASK",
    "condition": "Cond2",
    "trial_num": 48,
    "trial_length": 9,
    "click_num": 4,
    "RT": 1360,
    "action": 1,
    "reward": -3.1
  },
  {
    "phase": "TASK",
    "condition": "Cond2",
    "trial_num": 48,
    "trial_length": 9,
    "click_num": 5,
    "RT": 3320,
    "action": 1,
    "reward": -2.9
  },
  {
    "phase": "TASK",
    "condition": "Cond2",
    "trial_num": 48,
    "trial_length": 9,
    "click_num": 6,
    "RT": 2000,
    "action": 1,
    "reward": -3.1
  },
  {
    "phase": "TASK",
    "condition": "Cond2",
    "trial_num": 48,
    "trial_length": 9,
    "click_num": 7,
    "RT": 1608,
    "action": 1,
    "reward": -3.8
  },
  {
    "phase": "TASK",
    "condition": "Cond2",
    "trial_num": 48,
    "trial_length": 9,
    "click_num": 8,
    "RT": 1896,
    "action": 1,
    "reward": -4.2
  },
  {
    "phase": "TASK",
    "condition": "Cond2",
    "trial_num": 48,
    "trial_length": 9,
    "click_num": 9,
    "RT": 2144,
    "action": 0,
    "reward": -2.7
  },
  {
    "phase": "TASK",
    "condition": "Cond2",
    "trial_num": 49,
    "trial_length": 10,
    "click_num": 1,
    "RT": 1294,
    "action": 1,
    "reward": -2.8
  },
  {
    "phase": "TASK",
    "condition": "Cond2",
    "trial_num": 49,
    "trial_length": 10,
    "click_num": 2,
    "RT": 1289,
    "action": 1,
    "reward": -3.2
  },
  {
    "phase": "TASK",
    "condition": "Cond2",
    "trial_num": 49,
    "trial_length": 10,
    "click_num": 3,
    "RT": 1201,
    "action": 1,
    "reward": -3.2
  },
  {
    "phase": "TASK",
    "condition": "Cond2",
    "trial_num": 49,
    "trial_length": 10,
    "click_num": 4,
    "RT": 1184,
    "action": 1,
    "reward": -1.9
  },
  {
    "phase": "TASK",
    "condition": "Cond2",
    "trial_num": 49,
    "trial_length": 10,
    "click_num": 5,
    "RT": 1816,
    "action": 0,
    "reward": -1.9
  },
  {
    "phase": "TASK",
    "condition": "Cond2",
    "trial_num": 49,
    "trial_length": 10,
    "click_num": 6,
    "RT": 1416,
    "action": 0,
    "reward": -1.9
  },
  {
    "phase": "TASK",
    "condition": "Cond2",
    "trial_num": 49,
    "trial_length": 10,
    "click_num": 7,
    "RT": 1479,
    "action": 0,
    "reward": -1.9
  },
  {
    "phase": "TASK",
    "condition": "Cond2",
    "trial_num": 49,
    "trial_length": 10,
    "click_num": 8,
    "RT": 1176,
    "action": 0,
    "reward": -1.9
  },
  {
    "phase": "TASK",
    "condition": "Cond2",
    "trial_num": 49,
    "trial_length": 10,
    "click_num": 9,
    "RT": 1009,
    "action": 0,
    "reward": -1.9
  },
  {
    "phase": "TASK",
    "condition": "Cond2",
    "trial_num": 49,
    "trial_length": 10,
    "click_num": 10,
    "RT": 1136,
    "action": 0,
    "reward": -1.9
  },
  {
    "phase": "TASK",
    "condition": "Cond2",
    "trial_num": 50,
    "trial_length": 9,
    "click_num": 1,
    "RT": 1984,
    "action": 1,
    "reward": -3.2
  },
  {
    "phase": "TASK",
    "condition": "Cond2",
    "trial_num": 50,
    "trial_length": 9,
    "click_num": 2,
    "RT": 1691,
    "action": 1,
    "reward": -3.8
  },
  {
    "phase": "TASK",
    "condition": "Cond2",
    "trial_num": 50,
    "trial_length": 9,
    "click_num": 3,
    "RT": 1630,
    "action": 1,
    "reward": -2.3
  },
  {
    "phase": "TASK",
    "condition": "Cond2",
    "trial_num": 50,
    "trial_length": 9,
    "click_num": 4,
    "RT": 3575,
    "action": 0,
    "reward": -2.3
  },
  {
    "phase": "TASK",
    "condition": "Cond2",
    "trial_num": 50,
    "trial_length": 9,
    "click_num": 5,
    "RT": 1160,
    "action": 0,
    "reward": -2.3
  },
  {
    "phase": "TASK",
    "condition": "Cond2",
    "trial_num": 50,
    "trial_length": 9,
    "click_num": 6,
    "RT": 1256,
    "action": 0,
    "reward": -2.3
  },
  {
    "phase": "TASK",
    "condition": "Cond2",
    "trial_num": 50,
    "trial_length": 9,
    "click_num": 7,
    "RT": 1120,
    "action": 0,
    "reward": -2.3
  },
  {
    "phase": "TASK",
    "condition": "Cond2",
    "trial_num": 50,
    "trial_length": 9,
    "click_num": 8,
    "RT": 1048,
    "action": 0,
    "reward": -2.3
  },
  {
    "phase": "TASK",
    "condition": "Cond2",
    "trial_num": 50,
    "trial_length": 9,
    "click_num": 9,
    "RT": 1168,
    "action": 0,
    "reward": -2.3
  },
  {
    "phase": "TASK",
    "condition": "Cond2",
    "trial_num": 51,
    "trial_length": 8,
    "click_num": 1,
    "RT": 2647,
    "action": 1,
    "reward": -4.1
  },
  {
    "phase": "TASK",
    "condition": "Cond2",
    "trial_num": 51,
    "trial_length": 8,
    "click_num": 2,
    "RT": 1703,
    "action": 1,
    "reward": -3.3
  },
  {
    "phase": "TASK",
    "condition": "Cond2",
    "trial_num": 51,
    "trial_length": 8,
    "click_num": 3,
    "RT": 1441,
    "action": 1,
    "reward": -2.8
  },
  {
    "phase": "TASK",
    "condition": "Cond2",
    "trial_num": 51,
    "trial_length": 8,
    "click_num": 4,
    "RT": 1527,
    "action": 1,
    "reward": -3.3
  },
  {
    "phase": "TASK",
    "condition": "Cond2",
    "trial_num": 51,
    "trial_length": 8,
    "click_num": 5,
    "RT": 1152,
    "action": 1,
    "reward": -3
  },
  {
    "phase": "TASK",
    "condition": "Cond2",
    "trial_num": 51,
    "trial_length": 8,
    "click_num": 6,
    "RT": 1200,
    "action": 1,
    "reward": -2.8
  },
  {
    "phase": "TASK",
    "condition": "Cond2",
    "trial_num": 51,
    "trial_length": 8,
    "click_num": 7,
    "RT": 1848,
    "action": 1,
    "reward": -3.7
  },
  {
    "phase": "TASK",
    "condition": "Cond2",
    "trial_num": 51,
    "trial_length": 8,
    "click_num": 8,
    "RT": 1680,
    "action": 1,
    "reward": -3.2
  },
  {
    "phase": "TASK",
    "condition": "Cond2",
    "trial_num": 52,
    "trial_length": 10,
    "click_num": 1,
    "RT": 1390,
    "action": 1,
    "reward": -3.3
  },
  {
    "phase": "TASK",
    "condition": "Cond2",
    "trial_num": 52,
    "trial_length": 10,
    "click_num": 2,
    "RT": 1145,
    "action": 1,
    "reward": -2.9
  },
  {
    "phase": "TASK",
    "condition": "Cond2",
    "trial_num": 52,
    "trial_length": 10,
    "click_num": 3,
    "RT": 1304,
    "action": 1,
    "reward": -3.2
  },
  {
    "phase": "TASK",
    "condition": "Cond2",
    "trial_num": 52,
    "trial_length": 10,
    "click_num": 4,
    "RT": 1304,
    "action": 1,
    "reward": -3.5
  },
  {
    "phase": "TASK",
    "condition": "Cond2",
    "trial_num": 52,
    "trial_length": 10,
    "click_num": 5,
    "RT": 1248,
    "action": 1,
    "reward": -2.5
  },
  {
    "phase": "TASK",
    "condition": "Cond2",
    "trial_num": 52,
    "trial_length": 10,
    "click_num": 6,
    "RT": 1544,
    "action": 0,
    "reward": -2.5
  },
  {
    "phase": "TASK",
    "condition": "Cond2",
    "trial_num": 52,
    "trial_length": 10,
    "click_num": 7,
    "RT": 1160,
    "action": 0,
    "reward": -2.5
  },
  {
    "phase": "TASK",
    "condition": "Cond2",
    "trial_num": 52,
    "trial_length": 10,
    "click_num": 8,
    "RT": 1024,
    "action": 0,
    "reward": -2.5
  },
  {
    "phase": "TASK",
    "condition": "Cond2",
    "trial_num": 52,
    "trial_length": 10,
    "click_num": 9,
    "RT": 1056,
    "action": 0,
    "reward": -2.5
  },
  {
    "phase": "TASK",
    "condition": "Cond2",
    "trial_num": 52,
    "trial_length": 10,
    "click_num": 10,
    "RT": 952,
    "action": 0,
    "reward": -2.5
  },
  {
    "phase": "TASK",
    "condition": "Cond2",
    "trial_num": 53,
    "trial_length": 6,
    "click_num": 1,
    "RT": 1161,
    "action": 1,
    "reward": -3.5
  },
  {
    "phase": "TASK",
    "condition": "Cond2",
    "trial_num": 53,
    "trial_length": 6,
    "click_num": 2,
    "RT": 1216,
    "action": 1,
    "reward": -2.7
  },
  {
    "phase": "TASK",
    "condition": "Cond2",
    "trial_num": 53,
    "trial_length": 6,
    "click_num": 3,
    "RT": 2073,
    "action": 1,
    "reward": -3.1
  },
  {
    "phase": "TASK",
    "condition": "Cond2",
    "trial_num": 53,
    "trial_length": 6,
    "click_num": 4,
    "RT": 1287,
    "action": 1,
    "reward": -2.6
  },
  {
    "phase": "TASK",
    "condition": "Cond2",
    "trial_num": 53,
    "trial_length": 6,
    "click_num": 5,
    "RT": 1449,
    "action": 0,
    "reward": -2.6
  },
  {
    "phase": "TASK",
    "condition": "Cond2",
    "trial_num": 53,
    "trial_length": 6,
    "click_num": 6,
    "RT": 1070,
    "action": 0,
    "reward": -2.6
  },
  {
    "phase": "TASK",
    "condition": "Cond2",
    "trial_num": 54,
    "trial_length": 5,
    "click_num": 1,
    "RT": 1379,
    "action": 1,
    "reward": -4.2
  },
  {
    "phase": "TASK",
    "condition": "Cond2",
    "trial_num": 54,
    "trial_length": 5,
    "click_num": 2,
    "RT": 1233,
    "action": 1,
    "reward": -3.6
  },
  {
    "phase": "TASK",
    "condition": "Cond2",
    "trial_num": 54,
    "trial_length": 5,
    "click_num": 3,
    "RT": 1130,
    "action": 1,
    "reward": -2.7
  },
  {
    "phase": "TASK",
    "condition": "Cond2",
    "trial_num": 54,
    "trial_length": 5,
    "click_num": 4,
    "RT": 1695,
    "action": 0,
    "reward": -2.7
  },
  {
    "phase": "TASK",
    "condition": "Cond2",
    "trial_num": 54,
    "trial_length": 5,
    "click_num": 5,
    "RT": 1055,
    "action": 0,
    "reward": -2.7
  },
  {
    "phase": "TASK",
    "condition": "Cond2",
    "trial_num": 55,
    "trial_length": 6,
    "click_num": 1,
    "RT": 1205,
    "action": 1,
    "reward": -4
  },
  {
    "phase": "TASK",
    "condition": "Cond2",
    "trial_num": 55,
    "trial_length": 6,
    "click_num": 2,
    "RT": 1218,
    "action": 1,
    "reward": -2.9
  },
  {
    "phase": "TASK",
    "condition": "Cond2",
    "trial_num": 55,
    "trial_length": 6,
    "click_num": 3,
    "RT": 1303,
    "action": 1,
    "reward": -3.8
  },
  {
    "phase": "TASK",
    "condition": "Cond2",
    "trial_num": 55,
    "trial_length": 6,
    "click_num": 4,
    "RT": 1248,
    "action": 1,
    "reward": -3.7
  },
  {
    "phase": "TASK",
    "condition": "Cond2",
    "trial_num": 55,
    "trial_length": 6,
    "click_num": 5,
    "RT": 1536,
    "action": 1,
    "reward": -3.7
  },
  {
    "phase": "TASK",
    "condition": "Cond2",
    "trial_num": 55,
    "trial_length": 6,
    "click_num": 6,
    "RT": 2048,
    "action": 1,
    "reward": -2.2
  },
  {
    "phase": "TASK",
    "condition": "Cond2",
    "trial_num": 56,
    "trial_length": 5,
    "click_num": 1,
    "RT": 1256,
    "action": 1,
    "reward": -3.1
  },
  {
    "phase": "TASK",
    "condition": "Cond2",
    "trial_num": 56,
    "trial_length": 5,
    "click_num": 2,
    "RT": 1464,
    "action": 1,
    "reward": -2.4
  },
  {
    "phase": "TASK",
    "condition": "Cond2",
    "trial_num": 56,
    "trial_length": 5,
    "click_num": 3,
    "RT": 1512,
    "action": 0,
    "reward": -2.4
  },
  {
    "phase": "TASK",
    "condition": "Cond2",
    "trial_num": 56,
    "trial_length": 5,
    "click_num": 4,
    "RT": 1007,
    "action": 0,
    "reward": -2.4
  },
  {
    "phase": "TASK",
    "condition": "Cond2",
    "trial_num": 56,
    "trial_length": 5,
    "click_num": 5,
    "RT": 1048,
    "action": 0,
    "reward": -2.4
  },
  {
    "phase": "TASK",
    "condition": "Cond2",
    "trial_num": 57,
    "trial_length": 8,
    "click_num": 1,
    "RT": 1487,
    "action": 1,
    "reward": -2.7
  },
  {
    "phase": "TASK",
    "condition": "Cond2",
    "trial_num": 57,
    "trial_length": 8,
    "click_num": 2,
    "RT": 1320,
    "action": 1,
    "reward": -3.6
  },
  {
    "phase": "TASK",
    "condition": "Cond2",
    "trial_num": 57,
    "trial_length": 8,
    "click_num": 3,
    "RT": 1063,
    "action": 1,
    "reward": -2.6
  },
  {
    "phase": "TASK",
    "condition": "Cond2",
    "trial_num": 57,
    "trial_length": 8,
    "click_num": 4,
    "RT": 1768,
    "action": 0,
    "reward": -2.6
  },
  {
    "phase": "TASK",
    "condition": "Cond2",
    "trial_num": 57,
    "trial_length": 8,
    "click_num": 5,
    "RT": 984,
    "action": 0,
    "reward": -2.6
  },
  {
    "phase": "TASK",
    "condition": "Cond2",
    "trial_num": 57,
    "trial_length": 8,
    "click_num": 6,
    "RT": 919,
    "action": 0,
    "reward": -2.6
  },
  {
    "phase": "TASK",
    "condition": "Cond2",
    "trial_num": 57,
    "trial_length": 8,
    "click_num": 7,
    "RT": 1041,
    "action": 0,
    "reward": -2.6
  },
  {
    "phase": "TASK",
    "condition": "Cond2",
    "trial_num": 57,
    "trial_length": 8,
    "click_num": 8,
    "RT": 991,
    "action": 0,
    "reward": -2.6
  },
  {
    "phase": "TASK",
    "condition": "Cond2",
    "trial_num": 58,
    "trial_length": 10,
    "click_num": 1,
    "RT": 1288,
    "action": 1,
    "reward": -2.3
  },
  {
    "phase": "TASK",
    "condition": "Cond2",
    "trial_num": 58,
    "trial_length": 10,
    "click_num": 2,
    "RT": 1800,
    "action": 0,
    "reward": -2.3
  },
  {
    "phase": "TASK",
    "condition": "Cond2",
    "trial_num": 58,
    "trial_length": 10,
    "click_num": 3,
    "RT": 928,
    "action": 0,
    "reward": -2.3
  },
  {
    "phase": "TASK",
    "condition": "Cond2",
    "trial_num": 58,
    "trial_length": 10,
    "click_num": 4,
    "RT": 904,
    "action": 0,
    "reward": -2.3
  },
  {
    "phase": "TASK",
    "condition": "Cond2",
    "trial_num": 58,
    "trial_length": 10,
    "click_num": 5,
    "RT": 944,
    "action": 0,
    "reward": -2.3
  },
  {
    "phase": "TASK",
    "condition": "Cond2",
    "trial_num": 58,
    "trial_length": 10,
    "click_num": 6,
    "RT": 935,
    "action": 0,
    "reward": -2.3
  },
  {
    "phase": "TASK",
    "condition": "Cond2",
    "trial_num": 58,
    "trial_length": 10,
    "click_num": 7,
    "RT": 1017,
    "action": 0,
    "reward": -2.3
  },
  {
    "phase": "TASK",
    "condition": "Cond2",
    "trial_num": 58,
    "trial_length": 10,
    "click_num": 8,
    "RT": 959,
    "action": 0,
    "reward": -2.3
  },
  {
    "phase": "TASK",
    "condition": "Cond2",
    "trial_num": 58,
    "trial_length": 10,
    "click_num": 9,
    "RT": 969,
    "action": 0,
    "reward": -2.3
  },
  {
    "phase": "TASK",
    "condition": "Cond2",
    "trial_num": 58,
    "trial_length": 10,
    "click_num": 10,
    "RT": 911,
    "action": 0,
    "reward": -2.3
  },
  {
    "phase": "TASK",
    "condition": "Cond2",
    "trial_num": 59,
    "trial_length": 8,
    "click_num": 1,
    "RT": 1160,
    "action": 1,
    "reward": -3.7
  },
  {
    "phase": "TASK",
    "condition": "Cond2",
    "trial_num": 59,
    "trial_length": 8,
    "click_num": 2,
    "RT": 1216,
    "action": 1,
    "reward": -2.5
  },
  {
    "phase": "TASK",
    "condition": "Cond2",
    "trial_num": 59,
    "trial_length": 8,
    "click_num": 3,
    "RT": 2503,
    "action": 0,
    "reward": -2.5
  },
  {
    "phase": "TASK",
    "condition": "Cond2",
    "trial_num": 59,
    "trial_length": 8,
    "click_num": 4,
    "RT": 896,
    "action": 0,
    "reward": -2.5
  },
  {
    "phase": "TASK",
    "condition": "Cond2",
    "trial_num": 59,
    "trial_length": 8,
    "click_num": 5,
    "RT": 884,
    "action": 0,
    "reward": -2.5
  },
  {
    "phase": "TASK",
    "condition": "Cond2",
    "trial_num": 59,
    "trial_length": 8,
    "click_num": 6,
    "RT": 1030,
    "action": 0,
    "reward": -2.5
  },
  {
    "phase": "TASK",
    "condition": "Cond2",
    "trial_num": 59,
    "trial_length": 8,
    "click_num": 7,
    "RT": 911,
    "action": 0,
    "reward": -2.5
  },
  {
    "phase": "TASK",
    "condition": "Cond2",
    "trial_num": 59,
    "trial_length": 8,
    "click_num": 8,
    "RT": 955,
    "action": 0,
    "reward": -2.5
  },
  {
    "phase": "TASK",
    "condition": "Cond2",
    "trial_num": 60,
    "trial_length": 6,
    "click_num": 1,
    "RT": 1299,
    "action": 1,
    "reward": -2.9
  },
  {
    "phase": "TASK",
    "condition": "Cond2",
    "trial_num": 60,
    "trial_length": 6,
    "click_num": 2,
    "RT": 1360,
    "action": 1,
    "reward": -3.4
  },
  {
    "phase": "TASK",
    "condition": "Cond2",
    "trial_num": 60,
    "trial_length": 6,
    "click_num": 3,
    "RT": 1425,
    "action": 1,
    "reward": -3
  },
  {
    "phase": "TASK",
    "condition": "Cond2",
    "trial_num": 60,
    "trial_length": 6,
    "click_num": 4,
    "RT": 1799,
    "action": 1,
    "reward": -3.3
  },
  {
    "phase": "TASK",
    "condition": "Cond2",
    "trial_num": 60,
    "trial_length": 6,
    "click_num": 5,
    "RT": 1930,
    "action": 0,
    "reward": -2.9
  },
  {
    "phase": "TASK",
    "condition": "Cond2",
    "trial_num": 60,
    "trial_length": 6,
    "click_num": 6,
    "RT": 879,
    "action": 0,
    "reward": -2.9
  },
  {
    "phase": "TASK",
    "condition": "Cond2",
    "trial_num": 61,
    "trial_length": 6,
    "click_num": 1,
    "RT": 1262,
    "action": 1,
    "reward": -3.2
  },
  {
    "phase": "TASK",
    "condition": "Cond2",
    "trial_num": 61,
    "trial_length": 6,
    "click_num": 2,
    "RT": 8584,
    "action": 1,
    "reward": -2.2
  },
  {
    "phase": "TASK",
    "condition": "Cond2",
    "trial_num": 61,
    "trial_length": 6,
    "click_num": 3,
    "RT": 1616,
    "action": 0,
    "reward": -2.2
  },
  {
    "phase": "TASK",
    "condition": "Cond2",
    "trial_num": 61,
    "trial_length": 6,
    "click_num": 4,
    "RT": 1032,
    "action": 0,
    "reward": -2.2
  },
  {
    "phase": "TASK",
    "condition": "Cond2",
    "trial_num": 61,
    "trial_length": 6,
    "click_num": 5,
    "RT": 999,
    "action": 0,
    "reward": -2.2
  },
  {
    "phase": "TASK",
    "condition": "Cond2",
    "trial_num": 61,
    "trial_length": 6,
    "click_num": 6,
    "RT": 1072,
    "action": 0,
    "reward": -2.2
  },
  {
    "phase": "TASK",
    "condition": "Cond2",
    "trial_num": 62,
    "trial_length": 8,
    "click_num": 1,
    "RT": 1253,
    "action": 1,
    "reward": -3.1
  },
  {
    "phase": "TASK",
    "condition": "Cond2",
    "trial_num": 62,
    "trial_length": 8,
    "click_num": 2,
    "RT": 1519,
    "action": 1,
    "reward": -3.5
  },
  {
    "phase": "TASK",
    "condition": "Cond2",
    "trial_num": 62,
    "trial_length": 8,
    "click_num": 3,
    "RT": 1249,
    "action": 1,
    "reward": -2.7
  },
  {
    "phase": "TASK",
    "condition": "Cond2",
    "trial_num": 62,
    "trial_length": 8,
    "click_num": 4,
    "RT": 3071,
    "action": 1,
    "reward": -3.3
  },
  {
    "phase": "TASK",
    "condition": "Cond2",
    "trial_num": 62,
    "trial_length": 8,
    "click_num": 5,
    "RT": 1352,
    "action": 0,
    "reward": -2.7
  },
  {
    "phase": "TASK",
    "condition": "Cond2",
    "trial_num": 62,
    "trial_length": 8,
    "click_num": 6,
    "RT": 968,
    "action": 0,
    "reward": -2.7
  },
  {
    "phase": "TASK",
    "condition": "Cond2",
    "trial_num": 62,
    "trial_length": 8,
    "click_num": 7,
    "RT": 1065,
    "action": 0,
    "reward": -2.7
  },
  {
    "phase": "TASK",
    "condition": "Cond2",
    "trial_num": 62,
    "trial_length": 8,
    "click_num": 8,
    "RT": 3295,
    "action": 0,
    "reward": -2.7
  },
  {
    "phase": "TASK",
    "condition": "Cond2",
    "trial_num": 63,
    "trial_length": 8,
    "click_num": 1,
    "RT": 1240,
    "action": 1,
    "reward": -2.7
  },
  {
    "phase": "TASK",
    "condition": "Cond2",
    "trial_num": 63,
    "trial_length": 8,
    "click_num": 2,
    "RT": 1528,
    "action": 1,
    "reward": -3.1
  },
  {
    "phase": "TASK",
    "condition": "Cond2",
    "trial_num": 63,
    "trial_length": 8,
    "click_num": 3,
    "RT": 1423,
    "action": 1,
    "reward": -3.1
  },
  {
    "phase": "TASK",
    "condition": "Cond2",
    "trial_num": 63,
    "trial_length": 8,
    "click_num": 4,
    "RT": 2161,
    "action": 0,
    "reward": -2.7
  },
  {
    "phase": "TASK",
    "condition": "Cond2",
    "trial_num": 63,
    "trial_length": 8,
    "click_num": 5,
    "RT": 1000,
    "action": 0,
    "reward": -2.7
  },
  {
    "phase": "TASK",
    "condition": "Cond2",
    "trial_num": 63,
    "trial_length": 8,
    "click_num": 6,
    "RT": 951,
    "action": 0,
    "reward": -2.7
  },
  {
    "phase": "TASK",
    "condition": "Cond2",
    "trial_num": 63,
    "trial_length": 8,
    "click_num": 7,
    "RT": 1545,
    "action": 0,
    "reward": -2.7
  },
  {
    "phase": "TASK",
    "condition": "Cond2",
    "trial_num": 63,
    "trial_length": 8,
    "click_num": 8,
    "RT": 1079,
    "action": 0,
    "reward": -2.7
  },
  {
    "phase": "TASK",
    "condition": "Cond2",
    "trial_num": 64,
    "trial_length": 10,
    "click_num": 1,
    "RT": 1303,
    "action": 1,
    "reward": -2.6
  },
  {
    "phase": "TASK",
    "condition": "Cond2",
    "trial_num": 64,
    "trial_length": 10,
    "click_num": 2,
    "RT": 1617,
    "action": 1,
    "reward": -3.3
  },
  {
    "phase": "TASK",
    "condition": "Cond2",
    "trial_num": 64,
    "trial_length": 10,
    "click_num": 3,
    "RT": 1447,
    "action": 1,
    "reward": -3.1
  },
  {
    "phase": "TASK",
    "condition": "Cond2",
    "trial_num": 64,
    "trial_length": 10,
    "click_num": 4,
    "RT": 1464,
    "action": 1,
    "reward": -2.2
  },
  {
    "phase": "TASK",
    "condition": "Cond2",
    "trial_num": 64,
    "trial_length": 10,
    "click_num": 5,
    "RT": 1464,
    "action": 0,
    "reward": -2.2
  },
  {
    "phase": "TASK",
    "condition": "Cond2",
    "trial_num": 64,
    "trial_length": 10,
    "click_num": 6,
    "RT": 962,
    "action": 0,
    "reward": -2.2
  },
  {
    "phase": "TASK",
    "condition": "Cond2",
    "trial_num": 64,
    "trial_length": 10,
    "click_num": 7,
    "RT": 981,
    "action": 0,
    "reward": -2.2
  },
  {
    "phase": "TASK",
    "condition": "Cond2",
    "trial_num": 64,
    "trial_length": 10,
    "click_num": 8,
    "RT": 2226,
    "action": 0,
    "reward": -2.2
  },
  {
    "phase": "TASK",
    "condition": "Cond2",
    "trial_num": 64,
    "trial_length": 10,
    "click_num": 9,
    "RT": 4496,
    "action": 0,
    "reward": -2.2
  },
  {
    "phase": "TASK",
    "condition": "Cond2",
    "trial_num": 64,
    "trial_length": 10,
    "click_num": 10,
    "RT": 920,
    "action": 0,
    "reward": -2.2
  },
  {
    "phase": "TASK",
    "condition": "Cond2",
    "trial_num": 65,
    "trial_length": 10,
    "click_num": 1,
    "RT": 1585,
    "action": 1,
    "reward": -2.8
  },
  {
    "phase": "TASK",
    "condition": "Cond2",
    "trial_num": 65,
    "trial_length": 10,
    "click_num": 2,
    "RT": 1461,
    "action": 1,
    "reward": -3.2
  },
  {
    "phase": "TASK",
    "condition": "Cond2",
    "trial_num": 65,
    "trial_length": 10,
    "click_num": 3,
    "RT": 1246,
    "action": 1,
    "reward": -3.1
  },
  {
    "phase": "TASK",
    "condition": "Cond2",
    "trial_num": 65,
    "trial_length": 10,
    "click_num": 4,
    "RT": 1264,
    "action": 1,
    "reward": -2.9
  },
  {
    "phase": "TASK",
    "condition": "Cond2",
    "trial_num": 65,
    "trial_length": 10,
    "click_num": 5,
    "RT": 1411,
    "action": 1,
    "reward": -3.6
  },
  {
    "phase": "TASK",
    "condition": "Cond2",
    "trial_num": 65,
    "trial_length": 10,
    "click_num": 6,
    "RT": 1255,
    "action": 1,
    "reward": -3.8
  },
  {
    "phase": "TASK",
    "condition": "Cond2",
    "trial_num": 65,
    "trial_length": 10,
    "click_num": 7,
    "RT": 2183,
    "action": 1,
    "reward": -3.6
  },
  {
    "phase": "TASK",
    "condition": "Cond2",
    "trial_num": 65,
    "trial_length": 10,
    "click_num": 8,
    "RT": 1335,
    "action": 1,
    "reward": -3.5
  },
  {
    "phase": "TASK",
    "condition": "Cond2",
    "trial_num": 65,
    "trial_length": 10,
    "click_num": 9,
    "RT": 1432,
    "action": 1,
    "reward": -2.2
  },
  {
    "phase": "TASK",
    "condition": "Cond2",
    "trial_num": 65,
    "trial_length": 10,
    "click_num": 10,
    "RT": 1408,
    "action": 0,
    "reward": -2.2
  },
  {
    "phase": "TASK",
    "condition": "Cond2",
    "trial_num": 66,
    "trial_length": 5,
    "click_num": 1,
    "RT": 1365,
    "action": 1,
    "reward": -3.1
  },
  {
    "phase": "TASK",
    "condition": "Cond2",
    "trial_num": 66,
    "trial_length": 5,
    "click_num": 2,
    "RT": 1457,
    "action": 1,
    "reward": -3.1
  },
  {
    "phase": "TASK",
    "condition": "Cond2",
    "trial_num": 66,
    "trial_length": 5,
    "click_num": 3,
    "RT": 1303,
    "action": 1,
    "reward": -2.3
  },
  {
    "phase": "TASK",
    "condition": "Cond2",
    "trial_num": 66,
    "trial_length": 5,
    "click_num": 4,
    "RT": 1408,
    "action": 0,
    "reward": -2.3
  },
  {
    "phase": "TASK",
    "condition": "Cond2",
    "trial_num": 66,
    "trial_length": 5,
    "click_num": 5,
    "RT": 995,
    "action": 0,
    "reward": -2.3
  },
  {
    "phase": "TASK",
    "condition": "Cond2",
    "trial_num": 67,
    "trial_length": 5,
    "click_num": 1,
    "RT": 1407,
    "action": 1,
    "reward": -3.1
  },
  {
    "phase": "TASK",
    "condition": "Cond2",
    "trial_num": 67,
    "trial_length": 5,
    "click_num": 2,
    "RT": 1327,
    "action": 1,
    "reward": -3.1
  },
  {
    "phase": "TASK",
    "condition": "Cond2",
    "trial_num": 67,
    "trial_length": 5,
    "click_num": 3,
    "RT": 1121,
    "action": 1,
    "reward": -2.5
  },
  {
    "phase": "TASK",
    "condition": "Cond2",
    "trial_num": 67,
    "trial_length": 5,
    "click_num": 4,
    "RT": 1415,
    "action": 0,
    "reward": -2.5
  },
  {
    "phase": "TASK",
    "condition": "Cond2",
    "trial_num": 67,
    "trial_length": 5,
    "click_num": 5,
    "RT": 896,
    "action": 0,
    "reward": -2.5
  },
  {
    "phase": "TASK",
    "condition": "Cond2",
    "trial_num": 68,
    "trial_length": 5,
    "click_num": 1,
    "RT": 1166,
    "action": 1,
    "reward": -2.6
  },
  {
    "phase": "TASK",
    "condition": "Cond2",
    "trial_num": 68,
    "trial_length": 5,
    "click_num": 2,
    "RT": 1212,
    "action": 1,
    "reward": -2.4
  },
  {
    "phase": "TASK",
    "condition": "Cond2",
    "trial_num": 68,
    "trial_length": 5,
    "click_num": 3,
    "RT": 1869,
    "action": 0,
    "reward": -2.4
  },
  {
    "phase": "TASK",
    "condition": "Cond2",
    "trial_num": 68,
    "trial_length": 5,
    "click_num": 4,
    "RT": 912,
    "action": 0,
    "reward": -2.4
  },
  {
    "phase": "TASK",
    "condition": "Cond2",
    "trial_num": 68,
    "trial_length": 5,
    "click_num": 5,
    "RT": 1155,
    "action": 0,
    "reward": -2.4
  },
  {
    "phase": "TASK",
    "condition": "Cond2",
    "trial_num": 69,
    "trial_length": 9,
    "click_num": 1,
    "RT": 1142,
    "action": 1,
    "reward": -2.4
  },
  {
    "phase": "TASK",
    "condition": "Cond2",
    "trial_num": 69,
    "trial_length": 9,
    "click_num": 2,
    "RT": 1823,
    "action": 1,
    "reward": -3.9
  },
  {
    "phase": "TASK",
    "condition": "Cond2",
    "trial_num": 69,
    "trial_length": 9,
    "click_num": 3,
    "RT": 1552,
    "action": 0,
    "reward": -2.4
  },
  {
    "phase": "TASK",
    "condition": "Cond2",
    "trial_num": 69,
    "trial_length": 9,
    "click_num": 4,
    "RT": 1064,
    "action": 0,
    "reward": -2.4
  },
  {
    "phase": "TASK",
    "condition": "Cond2",
    "trial_num": 69,
    "trial_length": 9,
    "click_num": 5,
    "RT": 1008,
    "action": 0,
    "reward": -2.4
  },
  {
    "phase": "TASK",
    "condition": "Cond2",
    "trial_num": 69,
    "trial_length": 9,
    "click_num": 6,
    "RT": 976,
    "action": 0,
    "reward": -2.4
  },
  {
    "phase": "TASK",
    "condition": "Cond2",
    "trial_num": 69,
    "trial_length": 9,
    "click_num": 7,
    "RT": 938,
    "action": 0,
    "reward": -2.4
  },
  {
    "phase": "TASK",
    "condition": "Cond2",
    "trial_num": 69,
    "trial_length": 9,
    "click_num": 8,
    "RT": 934,
    "action": 0,
    "reward": -2.4
  },
  {
    "phase": "TASK",
    "condition": "Cond2",
    "trial_num": 69,
    "trial_length": 9,
    "click_num": 9,
    "RT": 888,
    "action": 0,
    "reward": -2.4
  },
  {
    "phase": "TASK",
    "condition": "Cond2",
    "trial_num": 70,
    "trial_length": 10,
    "click_num": 1,
    "RT": 1140,
    "action": 1,
    "reward": -2.9
  },
  {
    "phase": "TASK",
    "condition": "Cond2",
    "trial_num": 70,
    "trial_length": 10,
    "click_num": 2,
    "RT": 1235,
    "action": 1,
    "reward": -2.8
  },
  {
    "phase": "TASK",
    "condition": "Cond2",
    "trial_num": 70,
    "trial_length": 10,
    "click_num": 3,
    "RT": 1711,
    "action": 1,
    "reward": -2.6
  },
  {
    "phase": "TASK",
    "condition": "Cond2",
    "trial_num": 70,
    "trial_length": 10,
    "click_num": 4,
    "RT": 1320,
    "action": 0,
    "reward": -2.6
  },
  {
    "phase": "TASK",
    "condition": "Cond2",
    "trial_num": 70,
    "trial_length": 10,
    "click_num": 5,
    "RT": 1160,
    "action": 0,
    "reward": -2.6
  },
  {
    "phase": "TASK",
    "condition": "Cond2",
    "trial_num": 70,
    "trial_length": 10,
    "click_num": 6,
    "RT": 887,
    "action": 0,
    "reward": -2.6
  },
  {
    "phase": "TASK",
    "condition": "Cond2",
    "trial_num": 70,
    "trial_length": 10,
    "click_num": 7,
    "RT": 936,
    "action": 0,
    "reward": -2.6
  },
  {
    "phase": "TASK",
    "condition": "Cond2",
    "trial_num": 70,
    "trial_length": 10,
    "click_num": 8,
    "RT": 907,
    "action": 0,
    "reward": -2.6
  },
  {
    "phase": "TASK",
    "condition": "Cond2",
    "trial_num": 70,
    "trial_length": 10,
    "click_num": 9,
    "RT": 1025,
    "action": 0,
    "reward": -2.6
  },
  {
    "phase": "TASK",
    "condition": "Cond2",
    "trial_num": 70,
    "trial_length": 10,
    "click_num": 10,
    "RT": 1373,
    "action": 0,
    "reward": -2.6
  },
  {
    "phase": "TASK",
    "condition": "Cond2",
    "trial_num": 71,
    "trial_length": 10,
    "click_num": 1,
    "RT": 1334,
    "action": 1,
    "reward": -2.6
  },
  {
    "phase": "TASK",
    "condition": "Cond2",
    "trial_num": 71,
    "trial_length": 10,
    "click_num": 2,
    "RT": 1387,
    "action": 1,
    "reward": -3.3
  },
  {
    "phase": "TASK",
    "condition": "Cond2",
    "trial_num": 71,
    "trial_length": 10,
    "click_num": 3,
    "RT": 1421,
    "action": 1,
    "reward": -2.6
  },
  {
    "phase": "TASK",
    "condition": "Cond2",
    "trial_num": 71,
    "trial_length": 10,
    "click_num": 4,
    "RT": 1615,
    "action": 0,
    "reward": -2.6
  },
  {
    "phase": "TASK",
    "condition": "Cond2",
    "trial_num": 71,
    "trial_length": 10,
    "click_num": 5,
    "RT": 1137,
    "action": 0,
    "reward": -2.6
  },
  {
    "phase": "TASK",
    "condition": "Cond2",
    "trial_num": 71,
    "trial_length": 10,
    "click_num": 6,
    "RT": 943,
    "action": 0,
    "reward": -2.6
  },
  {
    "phase": "TASK",
    "condition": "Cond2",
    "trial_num": 71,
    "trial_length": 10,
    "click_num": 7,
    "RT": 937,
    "action": 0,
    "reward": -2.6
  },
  {
    "phase": "TASK",
    "condition": "Cond2",
    "trial_num": 71,
    "trial_length": 10,
    "click_num": 8,
    "RT": 1007,
    "action": 0,
    "reward": -2.6
  },
  {
    "phase": "TASK",
    "condition": "Cond2",
    "trial_num": 71,
    "trial_length": 10,
    "click_num": 9,
    "RT": 920,
    "action": 0,
    "reward": -2.6
  },
  {
    "phase": "TASK",
    "condition": "Cond2",
    "trial_num": 71,
    "trial_length": 10,
    "click_num": 10,
    "RT": 928,
    "action": 0,
    "reward": -2.6
  },
  {
    "phase": "TASK",
    "condition": "Cond2",
    "trial_num": 72,
    "trial_length": 9,
    "click_num": 1,
    "RT": 1399,
    "action": 1,
    "reward": -3.3
  },
  {
    "phase": "TASK",
    "condition": "Cond2",
    "trial_num": 72,
    "trial_length": 9,
    "click_num": 2,
    "RT": 1384,
    "action": 1,
    "reward": -2.9
  },
  {
    "phase": "TASK",
    "condition": "Cond2",
    "trial_num": 72,
    "trial_length": 9,
    "click_num": 3,
    "RT": 1751,
    "action": 0,
    "reward": -2.9
  },
  {
    "phase": "TASK",
    "condition": "Cond2",
    "trial_num": 72,
    "trial_length": 9,
    "click_num": 4,
    "RT": 1119,
    "action": 0,
    "reward": -2.9
  },
  {
    "phase": "TASK",
    "condition": "Cond2",
    "trial_num": 72,
    "trial_length": 9,
    "click_num": 5,
    "RT": 946,
    "action": 0,
    "reward": -2.9
  },
  {
    "phase": "TASK",
    "condition": "Cond2",
    "trial_num": 72,
    "trial_length": 9,
    "click_num": 6,
    "RT": 927,
    "action": 0,
    "reward": -2.9
  },
  {
    "phase": "TASK",
    "condition": "Cond2",
    "trial_num": 72,
    "trial_length": 9,
    "click_num": 7,
    "RT": 1283,
    "action": 0,
    "reward": -2.9
  },
  {
    "phase": "TASK",
    "condition": "Cond2",
    "trial_num": 72,
    "trial_length": 9,
    "click_num": 8,
    "RT": 974,
    "action": 0,
    "reward": -2.9
  },
  {
    "phase": "TASK",
    "condition": "Cond2",
    "trial_num": 72,
    "trial_length": 9,
    "click_num": 9,
    "RT": 1223,
    "action": 0,
    "reward": -2.9
  },
  {
    "phase": "TASK",
    "condition": "Cond2",
    "trial_num": 73,
    "trial_length": 9,
    "click_num": 1,
    "RT": 1142,
    "action": 1,
    "reward": -2.2
  },
  {
    "phase": "TASK",
    "condition": "Cond2",
    "trial_num": 73,
    "trial_length": 9,
    "click_num": 2,
    "RT": 1737,
    "action": 0,
    "reward": -2.2
  },
  {
    "phase": "TASK",
    "condition": "Cond2",
    "trial_num": 73,
    "trial_length": 9,
    "click_num": 3,
    "RT": 1128,
    "action": 0,
    "reward": -2.2
  },
  {
    "phase": "TASK",
    "condition": "Cond2",
    "trial_num": 73,
    "trial_length": 9,
    "click_num": 4,
    "RT": 1040,
    "action": 0,
    "reward": -2.2
  },
  {
    "phase": "TASK",
    "condition": "Cond2",
    "trial_num": 73,
    "trial_length": 9,
    "click_num": 5,
    "RT": 1119,
    "action": 0,
    "reward": -2.2
  },
  {
    "phase": "TASK",
    "condition": "Cond2",
    "trial_num": 73,
    "trial_length": 9,
    "click_num": 6,
    "RT": 952,
    "action": 0,
    "reward": -2.2
  },
  {
    "phase": "TASK",
    "condition": "Cond2",
    "trial_num": 73,
    "trial_length": 9,
    "click_num": 7,
    "RT": 936,
    "action": 0,
    "reward": -2.2
  },
  {
    "phase": "TASK",
    "condition": "Cond2",
    "trial_num": 73,
    "trial_length": 9,
    "click_num": 8,
    "RT": 979,
    "action": 0,
    "reward": -2.2
  },
  {
    "phase": "TASK",
    "condition": "Cond2",
    "trial_num": 73,
    "trial_length": 9,
    "click_num": 9,
    "RT": 965,
    "action": 0,
    "reward": -2.2
  },
  {
    "phase": "TASK",
    "condition": "Cond2",
    "trial_num": 74,
    "trial_length": 5,
    "click_num": 1,
    "RT": 1517,
    "action": 1,
    "reward": -2.5
  },
  {
    "phase": "TASK",
    "condition": "Cond2",
    "trial_num": 74,
    "trial_length": 5,
    "click_num": 2,
    "RT": 1618,
    "action": 0,
    "reward": -2.5
  },
  {
    "phase": "TASK",
    "condition": "Cond2",
    "trial_num": 74,
    "trial_length": 5,
    "click_num": 3,
    "RT": 999,
    "action": 0,
    "reward": -2.5
  },
  {
    "phase": "TASK",
    "condition": "Cond2",
    "trial_num": 74,
    "trial_length": 5,
    "click_num": 4,
    "RT": 963,
    "action": 0,
    "reward": -2.5
  },
  {
    "phase": "TASK",
    "condition": "Cond2",
    "trial_num": 74,
    "trial_length": 5,
    "click_num": 5,
    "RT": 974,
    "action": 0,
    "reward": -2.5
  },
  {
    "phase": "TASK",
    "condition": "Cond2",
    "trial_num": 75,
    "trial_length": 5,
    "click_num": 1,
    "RT": 1335,
    "action": 1,
    "reward": -1.9
  },
  {
    "phase": "TASK",
    "condition": "Cond2",
    "trial_num": 75,
    "trial_length": 5,
    "click_num": 2,
    "RT": 1600,
    "action": 0,
    "reward": -1.9
  },
  {
    "phase": "TASK",
    "condition": "Cond2",
    "trial_num": 75,
    "trial_length": 5,
    "click_num": 3,
    "RT": 1087,
    "action": 0,
    "reward": -1.9
  },
  {
    "phase": "TASK",
    "condition": "Cond2",
    "trial_num": 75,
    "trial_length": 5,
    "click_num": 4,
    "RT": 1056,
    "action": 0,
    "reward": -1.9
  },
  {
    "phase": "TASK",
    "condition": "Cond2",
    "trial_num": 75,
    "trial_length": 5,
    "click_num": 5,
    "RT": 1163,
    "action": 0,
    "reward": -1.9
  },
  {
    "phase": "TASK",
    "condition": "Cond2",
    "trial_num": 76,
    "trial_length": 10,
    "click_num": 1,
    "RT": 1426,
    "action": 1,
    "reward": -3.4
  },
  {
    "phase": "TASK",
    "condition": "Cond2",
    "trial_num": 76,
    "trial_length": 10,
    "click_num": 2,
    "RT": 1664,
    "action": 1,
    "reward": -3.4
  },
  {
    "phase": "TASK",
    "condition": "Cond2",
    "trial_num": 76,
    "trial_length": 10,
    "click_num": 3,
    "RT": 1282,
    "action": 1,
    "reward": -2.5
  },
  {
    "phase": "TASK",
    "condition": "Cond2",
    "trial_num": 76,
    "trial_length": 10,
    "click_num": 4,
    "RT": 1486,
    "action": 0,
    "reward": -2.5
  },
  {
    "phase": "TASK",
    "condition": "Cond2",
    "trial_num": 76,
    "trial_length": 10,
    "click_num": 5,
    "RT": 943,
    "action": 0,
    "reward": -2.5
  },
  {
    "phase": "TASK",
    "condition": "Cond2",
    "trial_num": 76,
    "trial_length": 10,
    "click_num": 6,
    "RT": 952,
    "action": 0,
    "reward": -2.5
  },
  {
    "phase": "TASK",
    "condition": "Cond2",
    "trial_num": 76,
    "trial_length": 10,
    "click_num": 7,
    "RT": 1016,
    "action": 0,
    "reward": -2.5
  },
  {
    "phase": "TASK",
    "condition": "Cond2",
    "trial_num": 76,
    "trial_length": 10,
    "click_num": 8,
    "RT": 1010,
    "action": 0,
    "reward": -2.5
  },
  {
    "phase": "TASK",
    "condition": "Cond2",
    "trial_num": 76,
    "trial_length": 10,
