[
  {
    "phase": "TASK",
    "condition": "Cond2",
    "trial_num": 1,
    "trial_length": 7,
    "click_num": 1,
    "RT": 3142,
    "action": 1,
    "reward": -2.6
  },
  {
    "phase": "TASK",
    "condition": "Cond2",
    "trial_num": 1,
    "trial_length": 7,
    "click_num": 2,
    "RT": 5615,
    "action": 1,
    "reward": -3.7
  },
  {
    "phase": "TASK",
    "condition": "Cond2",
    "trial_num": 1,
    "trial_length": 7,
    "click_num": 3,
    "RT": 4703,
    "action": 0,
    "reward": -2.6
  },
  {
    "phase": "TASK",
    "condition": "Cond2",
    "trial_num": 1,
    "trial_length": 7,
    "click_num": 4,
    "RT": 1928,
    "action": 1,
    "reward": -3
  },
  {
    "phase": "TASK",
    "condition": "Cond2",
    "trial_num": 1,
    "trial_length": 7,
    "click_num": 5,
    "RT": 4399,
    "action": 0,
    "reward": -2.6
  },
  {
    "phase": "TASK",
    "condition": "Cond2",
    "trial_num": 1,
    "trial_length": 7,
    "click_num": 6,
    "RT": 1825,
    "action": 1,
    "reward": -3.4
  },
  {
    "phase": "TASK",
    "condition": "Cond2",
    "trial_num": 1,
    "trial_length": 7,
    "click_num": 7,
    "RT": 1897,
    "action": 0,
    "reward": -2.6
  },
  {
    "phase": "TASK",
    "condition": "Cond2",
    "trial_num": 2,
    "trial_length": 5,
    "click_num": 1,
    "RT": 2303,
    "action": 1,
    "reward": -2.5
  },
  {
    "phase": "TASK",
    "condition": "Cond2",
    "trial_num": 2,
    "trial_length": 5,
    "click_num": 2,
    "RT": 5585,
    "action": 1,
    "reward": -2.4
  },
  {
    "phase": "TASK",
    "condition": "Cond2",
    "trial_num": 2,
    "trial_length": 5,
    "click_num": 3,
    "RT": 2326,
    "action": 0,
    "reward": -2.4
  },
  {
    "phase": "TASK",
    "condition": "Cond2",
    "trial_num": 2,
    "trial_length": 5,
    "click_num": 4,
    "RT": 2857,
    "action": 0,
    "reward": -2.4
  },
  {
    "phase": "TASK",
    "condition": "Cond2",
    "trial_num": 2,
    "trial_length": 5,
    "click_num": 5,
    "RT": 1160,
    "action": 1,
    "reward": -3.1
  },
  {
    "phase": "TASK",
    "condition": "Cond2",
    "trial_num": 3,
    "trial_length": 8,
    "click_num": 1,
    "RT": 1703,
    "action": 1,
    "reward": -2.7
  },
  {
    "phase": "TASK",
    "condition": "Cond2",
    "trial_num": 3,
    "trial_length": 8,
    "click_num": 2,
    "RT": 2904,
    "action": 1,
    "reward": -3.5
  },
  {
    "phase": "TASK",
    "condition": "Cond2",
    "trial_num": 3,
    "trial_length": 8,
    "click_num": 3,
    "RT": 1536,
    "action": 0,
    "reward": -2.7
  },
  {
    "phase": "TASK",
    "condition": "Cond2",
    "trial_num": 3,
    "trial_length": 8,
    "click_num": 4,
    "RT": 1240,
    "action": 0,
    "reward": -2.7
  },
  {
    "phase": "TASK",
    "condition": "Cond2",
    "trial_num": 3,
    "trial_length": 8,
    "click_num": 5,
    "RT": 1473,
    "action": 1,
    "reward": -2.5
  },
  {
    "phase": "TASK",
    "condition": "Cond2",
    "trial_num": 3,
    "trial_length": 8,
    "click_num": 6,
    "RT": 2423,
    "action": 0,
    "reward": -2.5
  },
  {
    "phase": "TASK",
    "condition": "Cond2",
    "trial_num": 3,
    "trial_length": 8,
    "click_num": 7,
    "RT": 1752,
    "action": 1,
    "reward": -2.7
  },
  {
    "phase": "TASK",
    "condition": "Cond2",
    "trial_num": 3,
    "trial_length": 8,
    "click_num": 8,
    "RT": 1551,
    "action": 0,
    "reward": -2.5
  },
  {
    "phase": "TASK",
    "condition": "Cond2",
    "trial_num": 4,
    "trial_length": 6,
    "click_num": 1,
    "RT": 1528,
    "action": 1,
    "reward": -3.6
  },
  {
    "phase": "TASK",
    "condition": "Cond2",
    "trial_num": 4,
    "trial_length": 6,
    "click_num": 2,
    "RT": 2168,
    "action": 1,
    "reward": -2.5
  },
  {
    "phase": "TASK",
    "condition": "Cond2",
    "trial_num": 4,
    "trial_length": 6,
    "click_num": 3,
    "RT": 2591,
    "action": 0,
    "reward": -2.5
  },
  {
    "phase": "TASK",
    "condition": "Cond2",
    "trial_num": 4,
    "trial_length": 6,
    "click_num": 4,
    "RT": 1057,
    "action": 0,
    "reward": -2.5
  },
  {
    "phase": "TASK",
    "condition": "Cond2",
    "trial_num": 4,
    "trial_length": 6,
    "click_num": 5,
    "RT": 1335,
    "action": 1,
    "reward": -3.4
  },
  {
    "phase": "TASK",
    "condition": "Cond2",
    "trial_num": 4,
    "trial_length": 6,
    "click_num": 6,
    "RT": 1576,
    "action": 0,
    "reward": -2.5
  },
  {
    "phase": "TASK",
    "condition": "Cond2",
    "trial_num": 5,
    "trial_length": 7,
    "click_num": 1,
    "RT": 2615,
    "action": 1,
    "reward": -1.3
  },
  {
    "phase": "TASK",
    "condition": "Cond2",
    "trial_num": 5,
    "trial_length": 7,
    "click_num": 2,
    "RT": 1687,
    "action": 0,
    "reward": -1.3
  },
  {
    "phase": "TASK",
    "condition": "Cond2",
    "trial_num": 5,
    "trial_length": 7,
    "click_num": 3,
    "RT": 993,
    "action": 0,
    "reward": -1.3
  },
  {
    "phase": "TASK",
    "condition": "Cond2",
    "trial_num": 5,
    "trial_length": 7,
    "click_num": 4,
    "RT": 936,
    "action": 0,
    "reward": -1.3
  },
  {
    "phase": "TASK",
    "condition": "Cond2",
    "trial_num": 5,
    "trial_length": 7,
    "click_num": 5,
    "RT": 927,
    "action": 0,
    "reward": -1.3
  },
  {
    "phase": "TASK",
    "condition": "Cond2",
    "trial_num": 5,
    "trial_length": 7,
    "click_num": 6,
    "RT": 1321,
    "action": 0,
    "reward": -1.3
  },
  {
    "phase": "TASK",
    "condition": "Cond2",
    "trial_num": 5,
    "trial_length": 7,
    "click_num": 7,
    "RT": 984,
    "action": 0,
    "reward": -1.3
  },
  {
    "phase": "TASK",
    "condition": "Cond2",
    "trial_num": 6,
    "trial_length": 9,
    "click_num": 1,
    "RT": 1647,
    "action": 1,
    "reward": -2.6
  },
  {
    "phase": "TASK",
    "condition": "Cond2",
    "trial_num": 6,
    "trial_length": 9,
    "click_num": 2,
    "RT": 2488,
    "action": 1,
    "reward": -2.3
  },
  {
    "phase": "TASK",
    "condition": "Cond2",
    "trial_num": 6,
    "trial_length": 9,
    "click_num": 3,
    "RT": 2199,
    "action": 0,
    "reward": -2.3
  },
  {
    "phase": "TASK",
    "condition": "Cond2",
    "trial_num": 6,
    "trial_length": 9,
    "click_num": 4,
    "RT": 1217,
    "action": 1,
    "reward": -2.9
  },
  {
    "phase": "TASK",
    "condition": "Cond2",
    "trial_num": 6,
    "trial_length": 9,
    "click_num": 5,
    "RT": 1417,
    "action": 0,
    "reward": -2.3
  },
  {
    "phase": "TASK",
    "condition": "Cond2",
    "trial_num": 6,
    "trial_length": 9,
    "click_num": 6,
    "RT": 1623,
    "action": 1,
    "reward": -3.2
  },
  {
    "phase": "TASK",
    "condition": "Cond2",
    "trial_num": 6,
    "trial_length": 9,
    "click_num": 7,
    "RT": 1400,
    "action": 0,
    "reward": -2.3
  },
  {
    "phase": "TASK",
    "condition": "Cond2",
    "trial_num": 6,
    "trial_length": 9,
    "click_num": 8,
    "RT": 976,
    "action": 0,
    "reward": -2.3
  },
  {
    "phase": "TASK",
    "condition": "Cond2",
    "trial_num": 6,
    "trial_length": 9,
    "click_num": 9,
    "RT": 1457,
    "action": 1,
    "reward": -2.5
  },
  {
    "phase": "TASK",
    "condition": "Cond2",
    "trial_num": 7,
    "trial_length": 8,
    "click_num": 1,
    "RT": 1919,
    "action": 1,
    "reward": -3
  },
  {
    "phase": "TASK",
    "condition": "Cond2",
    "trial_num": 7,
    "trial_length": 8,
    "click_num": 2,
    "RT": 2838,
    "action": 1,
    "reward": -1.9
  },
  {
    "phase": "TASK",
    "condition": "Cond2",
    "trial_num": 7,
    "trial_length": 8,
    "click_num": 3,
    "RT": 2079,
    "action": 0,
    "reward": -1.9
  },
  {
    "phase": "TASK",
    "condition": "Cond2",
    "trial_num": 7,
    "trial_length": 8,
    "click_num": 4,
    "RT": 928,
    "action": 0,
    "reward": -1.9
  },
  {
    "phase": "TASK",
    "condition": "Cond2",
    "trial_num": 7,
    "trial_length": 8,
    "click_num": 5,
    "RT": 1400,
    "action": 0,
    "reward": -1.9
  },
  {
    "phase": "TASK",
    "condition": "Cond2",
    "trial_num": 7,
    "trial_length": 8,
    "click_num": 6,
    "RT": 1665,
    "action": 0,
    "reward": -1.9
  },
  {
    "phase": "TASK",
    "condition": "Cond2",
    "trial_num": 7,
    "trial_length": 8,
    "click_num": 7,
    "RT": 1248,
    "action": 1,
    "reward": -2.9
  },
  {
    "phase": "TASK",
    "condition": "Cond2",
    "trial_num": 7,
    "trial_length": 8,
    "click_num": 8,
    "RT": 1344,
    "action": 0,
    "reward": -1.9
  },
  {
    "phase": "TASK",
    "condition": "Cond2",
    "trial_num": 8,
    "trial_length": 5,
    "click_num": 1,
    "RT": 1416,
    "action": 1,
    "reward": -2.1
  },
  {
    "phase": "TASK",
    "condition": "Cond2",
    "trial_num": 8,
    "trial_length": 5,
    "click_num": 2,
    "RT": 2927,
    "action": 1,
    "reward": -3.4
  },
  {
    "phase": "TASK",
    "condition": "Cond2",
    "trial_num": 8,
    "trial_length": 5,
    "click_num": 3,
    "RT": 1288,
    "action": 0,
    "reward": -2.1
  },
  {
    "phase": "TASK",
    "condition": "Cond2",
    "trial_num": 8,
    "trial_length": 5,
    "click_num": 4,
    "RT": 1184,
    "action": 1,
    "reward": -3.8
  },
  {
    "phase": "TASK",
    "condition": "Cond2",
    "trial_num": 8,
    "trial_length": 5,
    "click_num": 5,
    "RT": 1211,
    "action": 0,
    "reward": -2.1
  },
  {
    "phase": "TASK",
    "condition": "Cond2",
    "trial_num": 9,
    "trial_length": 7,
    "click_num": 1,
    "RT": 1517,
    "action": 1,
    "reward": -3.7
  },
  {
    "phase": "TASK",
    "condition": "Cond2",
    "trial_num": 9,
    "trial_length": 7,
    "click_num": 2,
    "RT": 1929,
    "action": 1,
    "reward": -2.8
  },
  {
    "phase": "TASK",
    "condition": "Cond2",
    "trial_num": 9,
    "trial_length": 7,
    "click_num": 3,
    "RT": 2317,
    "action": 1,
    "reward": -2.8
  },
  {
    "phase": "TASK",
    "condition": "Cond2",
    "trial_num": 9,
    "trial_length": 7,
    "click_num": 4,
    "RT": 1420,
    "action": 1,
    "reward": -3.2
  },
  {
    "phase": "TASK",
    "condition": "Cond2",
    "trial_num": 9,
    "trial_length": 7,
    "click_num": 5,
    "RT": 2142,
    "action": 1,
    "reward": -3.8
  },
  {
    "phase": "TASK",
    "condition": "Cond2",
    "trial_num": 9,
    "trial_length": 7,
    "click_num": 6,
    "RT": 1408,
    "action": 0,
    "reward": -2.8
  },
  {
    "phase": "TASK",
    "condition": "Cond2",
    "trial_num": 9,
    "trial_length": 7,
    "click_num": 7,
    "RT": 1336,
    "action": 1,
    "reward": -2.8
  },
  {
    "phase": "TASK",
    "condition": "Cond2",
    "trial_num": 10,
    "trial_length": 10,
    "click_num": 1,
    "RT": 1682,
    "action": 1,
    "reward": -3.2
  },
  {
    "phase": "TASK",
    "condition": "Cond2",
    "trial_num": 10,
    "trial_length": 10,
    "click_num": 2,
    "RT": 1755,
    "action": 1,
    "reward": -2.1
  },
  {
    "phase": "TASK",
    "condition": "Cond2",
    "trial_num": 10,
    "trial_length": 10,
    "click_num": 3,
    "RT": 1143,
    "action": 1,
    "reward": -3
  },
  {
    "phase": "TASK",
    "condition": "Cond2",
    "trial_num": 10,
    "trial_length": 10,
    "click_num": 4,
    "RT": 1801,
    "action": 1,
    "reward": -2.1
  },
  {
    "phase": "TASK",
    "condition": "Cond2",
    "trial_num": 10,
    "trial_length": 10,
    "click_num": 5,
    "RT": 1975,
    "action": 1,
    "reward": -3.6
  },
  {
    "phase": "TASK",
    "condition": "Cond2",
    "trial_num": 10,
    "trial_length": 10,
    "click_num": 6,
    "RT": 1625,
    "action": 1,
    "reward": -3
  },
  {
    "phase": "TASK",
    "condition": "Cond2",
    "trial_num": 10,
    "trial_length": 10,
    "click_num": 7,
    "RT": 1263,
    "action": 0,
    "reward": -2.1
  },
  {
    "phase": "TASK",
    "condition": "Cond2",
    "trial_num": 10,
    "trial_length": 10,
    "click_num": 8,
    "RT": 936,
    "action": 0,
    "reward": -2.1
  },
  {
    "phase": "TASK",
    "condition": "Cond2",
    "trial_num": 10,
    "trial_length": 10,
    "click_num": 9,
    "RT": 1024,
    "action": 1,
    "reward": -2.8
  },
  {
    "phase": "TASK",
    "condition": "Cond2",
    "trial_num": 10,
    "trial_length": 10,
    "click_num": 10,
    "RT": 1040,
    "action": 0,
    "reward": -2.1
  },
  {
    "phase": "TASK",
    "condition": "Cond2",
    "trial_num": 11,
    "trial_length": 5,
    "click_num": 1,
    "RT": 1240,
    "action": 1,
    "reward": -4.5
  },
  {
    "phase": "TASK",
    "condition": "Cond2",
    "trial_num": 11,
    "trial_length": 5,
    "click_num": 2,
    "RT": 2144,
    "action": 1,
    "reward": -3.9
  },
  {
    "phase": "TASK",
    "condition": "Cond2",
    "trial_num": 11,
    "trial_length": 5,
    "click_num": 3,
    "RT": 1320,
    "action": 1,
    "reward": -2.9
  },
  {
    "phase": "TASK",
    "condition": "Cond2",
    "trial_num": 11,
    "trial_length": 5,
    "click_num": 4,
    "RT": 1120,
    "action": 1,
    "reward": -2.8
  },
  {
    "phase": "TASK",
    "condition": "Cond2",
    "trial_num": 11,
    "trial_length": 5,
    "click_num": 5,
    "RT": 1360,
    "action": 1,
    "reward": -2.6
  },
  {
    "phase": "TASK",
    "condition": "Cond2",
    "trial_num": 12,
    "trial_length": 5,
    "click_num": 1,
    "RT": 1304,
    "action": 1,
    "reward": -3.4
  },
  {
    "phase": "TASK",
    "condition": "Cond2",
    "trial_num": 12,
    "trial_length": 5,
    "click_num": 2,
    "RT": 1495,
    "action": 1,
    "reward": -2.7
  },
  {
    "phase": "TASK",
    "condition": "Cond2",
    "trial_num": 12,
    "trial_length": 5,
    "click_num": 3,
    "RT": 1176,
    "action": 1,
    "reward": -3.4
  },
  {
    "phase": "TASK",
    "condition": "Cond2",
    "trial_num": 12,
    "trial_length": 5,
    "click_num": 4,
    "RT": 1775,
    "action": 1,
    "reward": -3.6
  },
  {
    "phase": "TASK",
    "condition": "Cond2",
    "trial_num": 12,
    "trial_length": 5,
    "click_num": 5,
    "RT": 1114,
    "action": 1,
    "reward": -3.3
  },
  {
    "phase": "TASK",
    "condition": "Cond2",
    "trial_num": 13,
    "trial_length": 9,
    "click_num": 1,
    "RT": 1168,
    "action": 1,
    "reward": -2.9
  },
  {
    "phase": "TASK",
    "condition": "Cond2",
    "trial_num": 13,
    "trial_length": 9,
    "click_num": 2,
    "RT": 2331,
    "action": 1,
    "reward": -2.9
  },
  {
    "phase": "TASK",
    "condition": "Cond2",
    "trial_num": 13,
    "trial_length": 9,
    "click_num": 3,
    "RT": 1125,
    "action": 1,
    "reward": -3.4
  },
  {
    "phase": "TASK",
    "condition": "Cond2",
    "trial_num": 13,
    "trial_length": 9,
    "click_num": 4,
    "RT": 1152,
    "action": 1,
    "reward": -2.8
  },
  {
    "phase": "TASK",
    "condition": "Cond2",
    "trial_num": 13,
    "trial_length": 9,
    "click_num": 5,
    "RT": 1248,
    "action": 1,
    "reward": -3.1
  },
  {
    "phase": "TASK",
    "condition": "Cond2",
    "trial_num": 13,
    "trial_length": 9,
    "click_num": 6,
    "RT": 1602,
    "action": 1,
    "reward": -3.3
  },
  {
    "phase": "TASK",
    "condition": "Cond2",
    "trial_num": 13,
    "trial_length": 9,
    "click_num": 7,
    "RT": 1230,
    "action": 1,
    "reward": -4.4
  },
  {
    "phase": "TASK",
    "condition": "Cond2",
    "trial_num": 13,
    "trial_length": 9,
    "click_num": 8,
    "RT": 1560,
    "action": 1,
    "reward": -3
  },
  {
    "phase": "TASK",
    "condition": "Cond2",
    "trial_num": 13,
    "trial_length": 9,
    "click_num": 9,
    "RT": 1427,
    "action": 0,
    "reward": -2.8
  },
  {
    "phase": "TASK",
    "condition": "Cond2",
    "trial_num": 14,
    "trial_length": 6,
    "click_num": 1,
    "RT": 1733,
    "action": 1,
    "reward": -3.8
  },
  {
    "phase": "TASK",
    "condition": "Cond2",
    "trial_num": 14,
    "trial_length": 6,
    "click_num": 2,
    "RT": 2035,
    "action": 1,
    "reward": -2.8
  },
  {
    "phase": "TASK",
    "condition": "Cond2",
    "trial_num": 14,
    "trial_length": 6,
    "click_num": 3,
    "RT": 1077,
    "action": 1,
    "reward": -3.5
  },
  {
    "phase": "TASK",
    "condition": "Cond2",
    "trial_num": 14,
    "trial_length": 6,
    "click_num": 4,
    "RT": 1624,
    "action": 0,
    "reward": -2.8
  },
  {
    "phase": "TASK",
    "condition": "Cond2",
    "trial_num": 14,
    "trial_length": 6,
    "click_num": 5,
    "RT": 1399,
    "action": 1,
    "reward": -3.2
  },
  {
    "phase": "TASK",
    "condition": "Cond2",
    "trial_num": 14,
    "trial_length": 6,
    "click_num": 6,
    "RT": 1169,
    "action": 0,
    "reward": -2.8
  },
  {
    "phase": "TASK",
    "condition": "Cond2",
    "trial_num": 15,
    "trial_length": 6,
    "click_num": 1,
    "RT": 1397,
    "action": 1,
    "reward": -3.1
  },
  {
    "phase": "TASK",
    "condition": "Cond2",
    "trial_num": 15,
    "trial_length": 6,
    "click_num": 2,
    "RT": 1633,
    "action": 1,
    "reward": -2.5
  },
  {
    "phase": "TASK",
    "condition": "Cond2",
    "trial_num": 15,
    "trial_length": 6,
    "click_num": 3,
    "RT": 1192,
    "action": 1,
    "reward": -2
  },
  {
    "phase": "TASK",
    "condition": "Cond2",
    "trial_num": 15,
    "trial_length": 6,
    "click_num": 4,
    "RT": 2359,
    "action": 0,
    "reward": -2
  },
  {
    "phase": "TASK",
    "condition": "Cond2",
    "trial_num": 15,
    "trial_length": 6,
    "click_num": 5,
    "RT": 1216,
    "action": 0,
    "reward": -2
  },
  {
    "phase": "TASK",
    "condition": "Cond2",
    "trial_num": 15,
    "trial_length": 6,
    "click_num": 6,
    "RT": 1192,
    "action": 1,
    "reward": -2.2
  },
  {
    "phase": "TASK",
    "condition": "Cond2",
    "trial_num": 16,
    "trial_length": 9,
    "click_num": 1,
    "RT": 1330,
    "action": 1,
    "reward": -3
  },
  {
    "phase": "TASK",
    "condition": "Cond2",
    "trial_num": 16,
    "trial_length": 9,
    "click_num": 2,
    "RT": 1683,
    "action": 1,
    "reward": -3.6
  },
  {
    "phase": "TASK",
    "condition": "Cond2",
    "trial_num": 16,
    "trial_length": 9,
    "click_num": 3,
    "RT": 1358,
    "action": 1,
    "reward": -2.8
  },
  {
    "phase": "TASK",
    "condition": "Cond2",
    "trial_num": 16,
    "trial_length": 9,
    "click_num": 4,
    "RT": 1390,
    "action": 1,
    "reward": -4
  },
  {
    "phase": "TASK",
    "condition": "Cond2",
    "trial_num": 16,
    "trial_length": 9,
    "click_num": 5,
    "RT": 1504,
    "action": 0,
    "reward": -2.8
  },
  {
    "phase": "TASK",
    "condition": "Cond2",
    "trial_num": 16,
    "trial_length": 9,
    "click_num": 6,
    "RT": 1170,
    "action": 0,
    "reward": -2.8
  },
  {
    "phase": "TASK",
    "condition": "Cond2",
    "trial_num": 16,
    "trial_length": 9,
    "click_num": 7,
    "RT": 1039,
    "action": 1,
    "reward": -3.5
  },
  {
    "phase": "TASK",
    "condition": "Cond2",
    "trial_num": 16,
    "trial_length": 9,
    "click_num": 8,
    "RT": 1968,
    "action": 1,
    "reward": -4.2
  },
  {
    "phase": "TASK",
    "condition": "Cond2",
    "trial_num": 16,
    "trial_length": 9,
    "click_num": 9,
    "RT": 1680,
    "action": 0,
    "reward": -2.8
  },
  {
    "phase": "TASK",
    "condition": "Cond2",
    "trial_num": 17,
    "trial_length": 8,
    "click_num": 1,
    "RT": 1709,
    "action": 1,
    "reward": -2.6
  },
  {
    "phase": "TASK",
    "condition": "Cond2",
    "trial_num": 17,
    "trial_length": 8,
    "click_num": 2,
    "RT": 1992,
    "action": 1,
    "reward": -2.3
  },
  {
    "phase": "TASK",
    "condition": "Cond2",
    "trial_num": 17,
    "trial_length": 8,
    "click_num": 3,
    "RT": 1241,
    "action": 1,
    "reward": -2.6
  },
  {
    "phase": "TASK",
    "condition": "Cond2",
    "trial_num": 17,
    "trial_length": 8,
    "click_num": 4,
    "RT": 1374,
    "action": 1,
    "reward": -2.2
  },
  {
    "phase": "TASK",
    "condition": "Cond2",
    "trial_num": 17,
    "trial_length": 8,
    "click_num": 5,
    "RT": 1528,
    "action": 0,
    "reward": -2.2
  },
  {
    "phase": "TASK",
    "condition": "Cond2",
    "trial_num": 17,
    "trial_length": 8,
    "click_num": 6,
    "RT": 824,
    "action": 0,
    "reward": -2.2
  },
  {
    "phase": "TASK",
    "condition": "Cond2",
    "trial_num": 17,
    "trial_length": 8,
    "click_num": 7,
    "RT": 839,
    "action": 0,
    "reward": -2.2
  },
  {
    "phase": "TASK",
    "condition": "Cond2",
    "trial_num": 17,
    "trial_length": 8,
    "click_num": 8,
    "RT": 1122,
    "action": 0,
    "reward": -2.2
  },
  {
    "phase": "TASK",
    "condition": "Cond2",
    "trial_num": 18,
    "trial_length": 8,
    "click_num": 1,
    "RT": 3144,
    "action": 1,
    "reward": -3.4
  },
  {
    "phase": "TASK",
    "condition": "Cond2",
    "trial_num": 18,
    "trial_length": 8,
    "click_num": 2,
    "RT": 1958,
    "action": 1,
    "reward": -2.5
  },
  {
    "phase": "TASK",
    "condition": "Cond2",
    "trial_num": 18,
    "trial_length": 8,
    "click_num": 3,
    "RT": 1472,
    "action": 1,
    "reward": -3.5
  },
  {
    "phase": "TASK",
    "condition": "Cond2",
    "trial_num": 18,
    "trial_length": 8,
    "click_num": 4,
    "RT": 1335,
    "action": 1,
    "reward": -2.4
  },
  {
    "phase": "TASK",
    "condition": "Cond2",
    "trial_num": 18,
    "trial_length": 8,
    "click_num": 5,
    "RT": 2361,
    "action": 0,
    "reward": -2.4
  },
  {
    "phase": "TASK",
    "condition": "Cond2",
    "trial_num": 18,
    "trial_length": 8,
    "click_num": 6,
    "RT": 1031,
    "action": 0,
    "reward": -2.4
  },
  {
    "phase": "TASK",
    "condition": "Cond2",
    "trial_num": 18,
    "trial_length": 8,
    "click_num": 7,
    "RT": 1746,
    "action": 1,
    "reward": -3.3
  },
  {
    "phase": "TASK",
    "condition": "Cond2",
    "trial_num": 18,
    "trial_length": 8,
    "click_num": 8,
    "RT": 1348,
    "action": 0,
    "reward": -2.4
  },
  {
    "phase": "TASK",
    "condition": "Cond2",
    "trial_num": 19,
    "trial_length": 6,
    "click_num": 1,
    "RT": 4550,
    "action": 1,
    "reward": -3.3
  },
  {
    "phase": "TASK",
    "condition": "Cond2",
    "trial_num": 19,
    "trial_length": 6,
    "click_num": 2,
    "RT": 1599,
    "action": 1,
    "reward": -4.2
  },
  {
    "phase": "TASK",
    "condition": "Cond2",
    "trial_num": 19,
    "trial_length": 6,
    "click_num": 3,
    "RT": 1497,
    "action": 1,
    "reward": -2.9
  },
  {
    "phase": "TASK",
    "condition": "Cond2",
    "trial_num": 19,
    "trial_length": 6,
    "click_num": 4,
    "RT": 1567,
    "action": 1,
    "reward": -2.8
  },
  {
    "phase": "TASK",
    "condition": "Cond2",
    "trial_num": 19,
    "trial_length": 6,
    "click_num": 5,
    "RT": 1288,
    "action": 1,
    "reward": -3
  },
  {
    "phase": "TASK",
    "condition": "Cond2",
    "trial_num": 19,
    "trial_length": 6,
    "click_num": 6,
    "RT": 1649,
    "action": 0,
    "reward": -2.8
  },
  {
    "phase": "TASK",
    "condition": "Cond2",
    "trial_num": 20,
    "trial_length": 8,
    "click_num": 1,
    "RT": 1895,
    "action": 1,
    "reward": -2.8
  },
  {
    "phase": "TASK",
    "condition": "Cond2",
    "trial_num": 20,
    "trial_length": 8,
    "click_num": 2,
    "RT": 1687,
    "action": 1,
    "reward": -3.6
  },
  {
    "phase": "TASK",
    "condition": "Cond2",
    "trial_num": 20,
    "trial_length": 8,
    "click_num": 3,
    "RT": 1848,
    "action": 0,
    "reward": -2.8
  },
  {
    "phase": "TASK",
    "condition": "Cond2",
    "trial_num": 20,
    "trial_length": 8,
    "click_num": 4,
    "RT": 1361,
    "action": 1,
    "reward": -3.1
  },
  {
    "phase": "TASK",
    "condition": "Cond2",
    "trial_num": 20,
    "trial_length": 8,
    "click_num": 5,
    "RT": 1840,
    "action": 0,
    "reward": -2.8
  },
  {
    "phase": "TASK",
    "condition": "Cond2",
    "trial_num": 20,
    "trial_length": 8,
    "click_num": 6,
    "RT": 991,
    "action": 1,
    "reward": -2.5
  },
  {
    "phase": "TASK",
    "condition": "Cond2",
    "trial_num": 20,
    "trial_length": 8,
    "click_num": 7,
    "RT": 1752,
    "action": 0,
    "reward": -2.5
  },
  {
    "phase": "TASK",
    "condition": "Cond2",
    "trial_num": 20,
    "trial_length": 8,
    "click_num": 8,
    "RT": 1019,
    "action": 0,
    "reward": -2.5
  },
  {
    "phase": "TASK",
    "condition": "Cond2",
    "trial_num": 21,
    "trial_length": 7,
    "click_num": 1,
    "RT": 2221,
    "action": 1,
    "reward": -3.1
  },
  {
    "phase": "TASK",
    "condition": "Cond2",
    "trial_num": 21,
    "trial_length": 7,
    "click_num": 2,
    "RT": 1849,
    "action": 1,
    "reward": -2.3
  },
  {
    "phase": "TASK",
    "condition": "Cond2",
    "trial_num": 21,
    "trial_length": 7,
    "click_num": 3,
    "RT": 1430,
    "action": 1,
    "reward": -2.9
  },
  {
    "phase": "TASK",
    "condition": "Cond2",
    "trial_num": 21,
    "trial_length": 7,
    "click_num": 4,
    "RT": 3048,
    "action": 0,
    "reward": -2.3
  },
  {
    "phase": "TASK",
    "condition": "Cond2",
    "trial_num": 21,
    "trial_length": 7,
    "click_num": 5,
    "RT": 977,
    "action": 1,
    "reward": -2.3
  },
  {
    "phase": "TASK",
    "condition": "Cond2",
    "trial_num": 21,
    "trial_length": 7,
    "click_num": 6,
    "RT": 1991,
    "action": 0,
    "reward": -2.3
  },
  {
    "phase": "TASK",
    "condition": "Cond2",
    "trial_num": 21,
    "trial_length": 7,
    "click_num": 7,
    "RT": 1203,
    "action": 0,
    "reward": -2.3
  },
  {
    "phase": "TASK",
    "condition": "Cond2",
    "trial_num": 22,
    "trial_length": 9,
    "click_num": 1,
    "RT": 1582,
    "action": 1,
    "reward": -2.8
  },
  {
    "phase": "TASK",
    "condition": "Cond2",
    "trial_num": 22,
    "trial_length": 9,
    "click_num": 2,
    "RT": 1464,
    "action": 1,
    "reward": -3
  },
  {
    "phase": "TASK",
    "condition": "Cond2",
    "trial_num": 22,
    "trial_length": 9,
    "click_num": 3,
    "RT": 1454,
    "action": 1,
    "reward": -2.1
  },
  {
    "phase": "TASK",
    "condition": "Cond2",
    "trial_num": 22,
    "trial_length": 9,
    "click_num": 4,
    "RT": 1681,
    "action": 0,
    "reward": -2.1
  },
  {
    "phase": "TASK",
    "condition": "Cond2",
    "trial_num": 22,
    "trial_length": 9,
    "click_num": 5,
    "RT": 904,
    "action": 0,
    "reward": -2.1
  },
  {
    "phase": "TASK",
    "condition": "Cond2",
    "trial_num": 22,
    "trial_length": 9,
    "click_num": 6,
    "RT": 1361,
    "action": 1,
    "reward": -2.7
  },
  {
    "phase": "TASK",
    "condition": "Cond2",
    "trial_num": 22,
    "trial_length": 9,
    "click_num": 7,
    "RT": 1475,
    "action": 1,
    "reward": -1.9
  },
  {
    "phase": "TASK",
    "condition": "Cond2",
    "trial_num": 22,
    "trial_length": 9,
    "click_num": 8,
    "RT": 1589,
    "action": 0,
    "reward": -1.9
  },
  {
    "phase": "TASK",
    "condition": "Cond2",
    "trial_num": 22,
    "trial_length": 9,
    "click_num": 9,
    "RT": 1032,
    "action": 0,
    "reward": -1.9
  },
  {
    "phase": "TASK",
    "condition": "Cond2",
    "trial_num": 23,
    "trial_length": 5,
    "click_num": 1,
    "RT": 1670,
    "action": 1,
    "reward": -2.9
  },
  {
    "phase": "TASK",
    "condition": "Cond2",
    "trial_num": 23,
    "trial_length": 5,
    "click_num": 2,
    "RT": 1703,
    "action": 1,
    "reward": -3
  },
  {
    "phase": "TASK",
    "condition": "Cond2",
    "trial_num": 23,
    "trial_length": 5,
    "click_num": 3,
    "RT": 1144,
    "action": 1,
    "reward": -3.4
  },
  {
    "phase": "TASK",
    "condition": "Cond2",
    "trial_num": 23,
    "trial_length": 5,
    "click_num": 4,
    "RT": 1346,
    "action": 0,
    "reward": -2.9
  },
  {
    "phase": "TASK",
    "condition": "Cond2",
    "trial_num": 23,
    "trial_length": 5,
    "click_num": 5,
    "RT": 991,
    "action": 1,
    "reward": -3.3
  },
  {
    "phase": "TASK",
    "condition": "Cond2",
    "trial_num": 24,
    "trial_length": 7,
    "click_num": 1,
    "RT": 1470,
    "action": 1,
    "reward": -3.7
  },
  {
    "phase": "TASK",
    "condition": "Cond2",
    "trial_num": 24,
    "trial_length": 7,
    "click_num": 2,
    "RT": 1400,
    "action": 1,
    "reward": -2.7
  },
  {
    "phase": "TASK",
    "condition": "Cond2",
    "trial_num": 24,
    "trial_length": 7,
    "click_num": 3,
    "RT": 1823,
    "action": 1,
    "reward": -3.1
  },
  {
    "phase": "TASK",
    "condition": "Cond2",
    "trial_num": 24,
    "trial_length": 7,
    "click_num": 4,
    "RT": 1297,
    "action": 1,
    "reward": -2
  },
  {
    "phase": "TASK",
    "condition": "Cond2",
    "trial_num": 24,
    "trial_length": 7,
    "click_num": 5,
    "RT": 1376,
    "action": 0,
    "reward": -2
  },
  {
    "phase": "TASK",
    "condition": "Cond2",
    "trial_num": 24,
    "trial_length": 7,
    "click_num": 6,
    "RT": 800,
    "action": 0,
    "reward": -2
  },
  {
    "phase": "TASK",
    "condition": "Cond2",
    "trial_num": 24,
    "trial_length": 7,
    "click_num": 7,
    "RT": 962,
    "action": 0,
    "reward": -2
  },
  {
    "phase": "TASK",
    "condition": "Cond2",
    "trial_num": 25,
    "trial_length": 10,
    "click_num": 1,
    "RT": 2229,
    "action": 1,
    "reward": -3.9
  },
  {
    "phase": "TASK",
    "condition": "Cond2",
    "trial_num": 25,
    "trial_length": 10,
    "click_num": 2,
    "RT": 1768,
    "action": 1,
    "reward": -1.8
  },
  {
    "phase": "TASK",
    "condition": "Cond2",
    "trial_num": 25,
    "trial_length": 10,
    "click_num": 3,
    "RT": 1416,
    "action": 0,
    "reward": -1.8
  },
  {
    "phase": "TASK",
    "condition": "Cond2",
    "trial_num": 25,
    "trial_length": 10,
    "click_num": 4,
    "RT": 1023,
    "action": 0,
    "reward": -1.8
  },
  {
    "phase": "TASK",
    "condition": "Cond2",
    "trial_num": 25,
    "trial_length": 10,
    "click_num": 5,
    "RT": 884,
    "action": 0,
    "reward": -1.8
  },
  {
    "phase": "TASK",
    "condition": "Cond2",
    "trial_num": 25,
    "trial_length": 10,
    "click_num": 6,
    "RT": 2533,
    "action": 0,
    "reward": -1.8
  },
  {
    "phase": "TASK",
    "condition": "Cond2",
    "trial_num": 25,
    "trial_length": 10,
    "click_num": 7,
    "RT": 1088,
    "action": 0,
    "reward": -1.8
  },
  {
    "phase": "TASK",
    "condition": "Cond2",
    "trial_num": 25,
    "trial_length": 10,
    "click_num": 8,
    "RT": 896,
    "action": 0,
    "reward": -1.8
  },
  {
    "phase": "TASK",
    "condition": "Cond2",
    "trial_num": 25,
    "trial_length": 10,
    "click_num": 9,
    "RT": 903,
    "action": 0,
    "reward": -1.8
  },
  {
    "phase": "TASK",
    "condition": "Cond2",
    "trial_num": 25,
    "trial_length": 10,
    "click_num": 10,
    "RT": 866,
    "action": 0,
    "reward": -1.8
  },
  {
    "phase": "TASK",
    "condition": "Cond2",
    "trial_num": 26,
    "trial_length": 7,
    "click_num": 1,
    "RT": 1735,
    "action": 1,
    "reward": -2.6
  },
  {
    "phase": "TASK",
    "condition": "Cond2",
    "trial_num": 26,
    "trial_length": 7,
    "click_num": 2,
    "RT": 1801,
    "action": 1,
    "reward": -3.8
  },
  {
    "phase": "TASK",
    "condition": "Cond2",
    "trial_num": 26,
    "trial_length": 7,
    "click_num": 3,
    "RT": 1198,
    "action": 1,
    "reward": -2.6
  },
  {
    "phase": "TASK",
    "condition": "Cond2",
    "trial_num": 26,
    "trial_length": 7,
    "click_num": 4,
    "RT": 3368,
    "action": 1,
    "reward": -3.8
  },
  {
    "phase": "TASK",
    "condition": "Cond2",
    "trial_num": 26,
    "trial_length": 7,
    "click_num": 5,
    "RT": 1879,
    "action": 1,
    "reward": -2.5
  },
  {
    "phase": "TASK",
    "condition": "Cond2",
    "trial_num": 26,
    "trial_length": 7,
    "click_num": 6,
    "RT": 1481,
    "action": 0,
    "reward": -2.5
  },
  {
    "phase": "TASK",
    "condition": "Cond2",
    "trial_num": 26,
    "trial_length": 7,
    "click_num": 7,
    "RT": 953,
    "action": 0,
    "reward": -2.5
  },
  {
    "phase": "TASK",
    "condition": "Cond2",
    "trial_num": 27,
    "trial_length": 9,
    "click_num": 1,
    "RT": 1446,
    "action": 1,
    "reward": -3.7
  },
  {
    "phase": "TASK",
    "condition": "Cond2",
    "trial_num": 27,
    "trial_length": 9,
    "click_num": 2,
    "RT": 1663,
    "action": 1,
    "reward": -3.5
  },
  {
    "phase": "TASK",
    "condition": "Cond2",
    "trial_num": 27,
    "trial_length": 9,
    "click_num": 3,
    "RT": 1249,
    "action": 1,
    "reward": -2.2
  },
  {
    "phase": "TASK",
    "condition": "Cond2",
    "trial_num": 27,
    "trial_length": 9,
    "click_num": 4,
    "RT": 1342,
    "action": 0,
    "reward": -2.2
  },
  {
    "phase": "TASK",
    "condition": "Cond2",
    "trial_num": 27,
    "trial_length": 9,
    "click_num": 5,
    "RT": 1210,
    "action": 0,
    "reward": -2.2
  },
  {
    "phase": "TASK",
    "condition": "Cond2",
    "trial_num": 27,
    "trial_length": 9,
    "click_num": 6,
    "RT": 1544,
    "action": 0,
    "reward": -2.2
  },
  {
    "phase": "TASK",
    "condition": "Cond2",
    "trial_num": 27,
    "trial_length": 9,
    "click_num": 7,
    "RT": 1217,
    "action": 1,
    "reward": -2.6
  },
  {
    "phase": "TASK",
    "condition": "Cond2",
    "trial_num": 27,
    "trial_length": 9,
    "click_num": 8,
    "RT": 1143,
    "action": 0,
    "reward": -2.2
  },
  {
    "phase": "TASK",
    "condition": "Cond2",
    "trial_num": 27,
    "trial_length": 9,
    "click_num": 9,
    "RT": 1138,
    "action": 1,
    "reward": -3.1
  },
  {
    "phase": "TASK",
    "condition": "Cond2",
    "trial_num": 28,
    "trial_length": 7,
    "click_num": 1,
    "RT": 1381,
    "action": 1,
    "reward": -2.8
  },
  {
    "phase": "TASK",
    "condition": "Cond2",
    "trial_num": 28,
    "trial_length": 7,
    "click_num": 2,
    "RT": 1264,
    "action": 1,
    "reward": -3.4
  },
  {
    "phase": "TASK",
    "condition": "Cond2",
    "trial_num": 28,
    "trial_length": 7,
    "click_num": 3,
    "RT": 2945,
    "action": 1,
    "reward": -3
  },
  {
    "phase": "TASK",
    "condition": "Cond2",
    "trial_num": 28,
    "trial_length": 7,
    "click_num": 4,
    "RT": 1191,
    "action": 1,
    "reward": -3.6
  },
  {
    "phase": "TASK",
    "condition": "Cond2",
    "trial_num": 28,
    "trial_length": 7,
    "click_num": 5,
    "RT": 1383,
    "action": 0,
    "reward": -2.8
  },
  {
    "phase": "TASK",
    "condition": "Cond2",
    "trial_num": 28,
    "trial_length": 7,
    "click_num": 6,
    "RT": 1040,
    "action": 0,
    "reward": -2.8
  },
  {
    "phase": "TASK",
    "condition": "Cond2",
    "trial_num": 28,
    "trial_length": 7,
    "click_num": 7,
    "RT": 1001,
    "action": 1,
    "reward": -2.3
  },
  {
    "phase": "TASK",
    "condition": "Cond2",
    "trial_num": 29,
    "trial_length": 9,
    "click_num": 1,
    "RT": 2163,
    "action": 1,
    "reward": -3.3
  },
  {
    "phase": "TASK",
    "condition": "Cond2",
    "trial_num": 29,
    "trial_length": 9,
    "click_num": 2,
    "RT": 1891,
    "action": 1,
    "reward": -2.7
  },
  {
    "phase": "TASK",
    "condition": "Cond2",
    "trial_num": 29,
    "trial_length": 9,
    "click_num": 3,
    "RT": 1686,
    "action": 1,
    "reward": -3
  },
  {
    "phase": "TASK",
    "condition": "Cond2",
    "trial_num": 29,
    "trial_length": 9,
    "click_num": 4,
    "RT": 1496,
    "action": 1,
    "reward": -2.5
  },
  {
    "phase": "TASK",
    "condition": "Cond2",
    "trial_num": 29,
    "trial_length": 9,
    "click_num": 5,
    "RT": 1674,
    "action": 0,
    "reward": -2.5
  },
  {
    "phase": "TASK",
    "condition": "Cond2",
    "trial_num": 29,
    "trial_length": 9,
    "click_num": 6,
    "RT": 1175,
    "action": 0,
    "reward": -2.5
  },
  {
    "phase": "TASK",
    "condition": "Cond2",
    "trial_num": 29,
    "trial_length": 9,
    "click_num": 7,
    "RT": 1128,
    "action": 1,
    "reward": -2.8
  },
  {
    "phase": "TASK",
    "condition": "Cond2",
    "trial_num": 29,
    "trial_length": 9,
    "click_num": 8,
    "RT": 1184,
    "action": 0,
    "reward": -2.5
  },
  {
    "phase": "TASK",
    "condition": "Cond2",
    "trial_num": 29,
    "trial_length": 9,
    "click_num": 9,
    "RT": 1081,
    "action": 1,
    "reward": -2.8
  },
  {
    "phase": "TASK",
    "condition": "Cond2",
    "trial_num": 30,
    "trial_length": 6,
    "click_num": 1,
    "RT": 1567,
    "action": 1,
    "reward": -2.4
  },
  {
    "phase": "TASK",
    "condition": "Cond2",
    "trial_num": 30,
    "trial_length": 6,
    "click_num": 2,
    "RT": 1776,
    "action": 1,
    "reward": -2.5
  },
  {
    "phase": "TASK",
    "condition": "Cond2",
    "trial_num": 30,
    "trial_length": 6,
    "click_num": 3,
    "RT": 1744,
    "action": 0,
    "reward": -2.4
  },
  {
    "phase": "TASK",
    "condition": "Cond2",
    "trial_num": 30,
    "trial_length": 6,
    "click_num": 4,
    "RT": 968,
    "action": 1,
    "reward": -2.8
  },
  {
    "phase": "TASK",
    "condition": "Cond2",
    "trial_num": 30,
    "trial_length": 6,
    "click_num": 5,
    "RT": 1776,
    "action": 0,
    "reward": -2.4
  },
  {
    "phase": "TASK",
    "condition": "Cond2",
    "trial_num": 30,
    "trial_length": 6,
    "click_num": 6,
    "RT": 1055,
    "action": 1,
    "reward": -3.3
  },
  {
    "phase": "TASK",
    "condition": "Cond2",
    "trial_num": 31,
    "trial_length": 9,
    "click_num": 1,
    "RT": 1363,
    "action": 1,
    "reward": -2.7
  },
  {
    "phase": "TASK",
    "condition": "Cond2",
    "trial_num": 31,
    "trial_length": 9,
    "click_num": 2,
    "RT": 1431,
    "action": 1,
    "reward": -3.2
  },
  {
    "phase": "TASK",
    "condition": "Cond2",
    "trial_num": 31,
    "trial_length": 9,
    "click_num": 3,
    "RT": 1552,
    "action": 0,
    "reward": -2.7
  },
  {
    "phase": "TASK",
    "condition": "Cond2",
    "trial_num": 31,
    "trial_length": 9,
    "click_num": 4,
    "RT": 776,
    "action": 1,
    "reward": -4.3
  },
  {
    "phase": "TASK",
    "condition": "Cond2",
    "trial_num": 31,
    "trial_length": 9,
    "click_num": 5,
    "RT": 1786,
    "action": 1,
    "reward": -3.3
  },
  {
    "phase": "TASK",
    "condition": "Cond2",
    "trial_num": 31,
    "trial_length": 9,
    "click_num": 6,
    "RT": 1335,
    "action": 1,
    "reward": -2.5
  },
  {
    "phase": "TASK",
    "condition": "Cond2",
    "trial_num": 31,
    "trial_length": 9,
    "click_num": 7,
    "RT": 1280,
    "action": 0,
    "reward": -2.5
  },
  {
    "phase": "TASK",
    "condition": "Cond2",
    "trial_num": 31,
    "trial_length": 9,
    "click_num": 8,
    "RT": 1047,
    "action": 0,
    "reward": -2.5
  },
  {
    "phase": "TASK",
    "condition": "Cond2",
    "trial_num": 31,
    "trial_length": 9,
    "click_num": 9,
    "RT": 930,
    "action": 0,
    "reward": -2.5
  },
  {
    "phase": "TASK",
    "condition": "Cond2",
    "trial_num": 32,
    "trial_length": 8,
    "click_num": 1,
    "RT": 1462,
    "action": 1,
    "reward": -1.9
  },
  {
    "phase": "TASK",
    "condition": "Cond2",
    "trial_num": 32,
    "trial_length": 8,
    "click_num": 2,
    "RT": 2178,
    "action": 0,
    "reward": -1.9
  },
  {
    "phase": "TASK",
    "condition": "Cond2",
    "trial_num": 32,
    "trial_length": 8,
    "click_num": 3,
    "RT": 1947,
    "action": 0,
    "reward": -1.9
  },
  {
    "phase": "TASK",
    "condition": "Cond2",
    "trial_num": 32,
    "trial_length": 8,
    "click_num": 4,
    "RT": 1179,
    "action": 0,
    "reward": -1.9
  },
  {
    "phase": "TASK",
    "condition": "Cond2",
    "trial_num": 32,
    "trial_length": 8,
    "click_num": 5,
    "RT": 967,
    "action": 0,
    "reward": -1.9
  },
  {
    "phase": "TASK",
    "condition": "Cond2",
    "trial_num": 32,
    "trial_length": 8,
    "click_num": 6,
    "RT": 915,
    "action": 0,
    "reward": -1.9
  },
  {
    "phase": "TASK",
    "condition": "Cond2",
    "trial_num": 32,
    "trial_length": 8,
    "click_num": 7,
    "RT": 854,
    "action": 0,
    "reward": -1.9
  },
  {
    "phase": "TASK",
    "condition": "Cond2",
    "trial_num": 32,
    "trial_length": 8,
    "click_num": 8,
    "RT": 847,
    "action": 0,
    "reward": -1.9
  },
  {
    "phase": "TASK",
    "condition": "Cond2",
    "trial_num": 33,
    "trial_length": 8,
    "click_num": 1,
    "RT": 2007,
    "action": 1,
    "reward": -3
  },
  {
    "phase": "TASK",
    "condition": "Cond2",
    "trial_num": 33,
    "trial_length": 8,
    "click_num": 2,
    "RT": 1607,
    "action": 1,
    "reward": -2.8
  },
  {
    "phase": "TASK",
    "condition": "Cond2",
    "trial_num": 33,
    "trial_length": 8,
    "click_num": 3,
    "RT": 1791,
    "action": 1,
    "reward": -3.9
  },
  {
    "phase": "TASK",
    "condition": "Cond2",
    "trial_num": 33,
    "trial_length": 8,
    "click_num": 4,
    "RT": 1355,
    "action": 1,
    "reward": -2.5
  },
  {
    "phase": "TASK",
    "condition": "Cond2",
    "trial_num": 33,
    "trial_length": 8,
    "click_num": 5,
    "RT": 1278,
    "action": 1,
    "reward": -3.7
  },
  {
    "phase": "TASK",
    "condition": "Cond2",
    "trial_num": 33,
    "trial_length": 8,
    "click_num": 6,
    "RT": 1279,
    "action": 1,
    "reward": -3.2
  },
  {
    "phase": "TASK",
    "condition": "Cond2",
    "trial_num": 33,
    "trial_length": 8,
    "click_num": 7,
    "RT": 1480,
    "action": 0,
    "reward": -2.5
  },
  {
    "phase": "TASK",
    "condition": "Cond2",
    "trial_num": 33,
    "trial_length": 8,
    "click_num": 8,
    "RT": 987,
    "action": 0,
    "reward": -2.5
  },
  {
    "phase": "TASK",
    "condition": "Cond2",
    "trial_num": 34,
    "trial_length": 7,
    "click_num": 1,
    "RT": 1517,
    "action": 1,
    "reward": -1.6
  },
  {
    "phase": "TASK",
    "condition": "Cond2",
    "trial_num": 34,
    "trial_length": 7,
    "click_num": 2,
    "RT": 1720,
    "action": 0,
    "reward": -1.6
  },
  {
    "phase": "TASK",
    "condition": "Cond2",
    "trial_num": 34,
    "trial_length": 7,
    "click_num": 3,
    "RT": 793,
    "action": 0,
    "reward": -1.6
  },
  {
    "phase": "TASK",
    "condition": "Cond2",
    "trial_num": 34,
    "trial_length": 7,
    "click_num": 4,
    "RT": 776,
    "action": 0,
    "reward": -1.6
  },
  {
    "phase": "TASK",
    "condition": "Cond2",
    "trial_num": 34,
    "trial_length": 7,
    "click_num": 5,
    "RT": 862,
    "action": 0,
    "reward": -1.6
  },
  {
    "phase": "TASK",
    "condition": "Cond2",
    "trial_num": 34,
    "trial_length": 7,
    "click_num": 6,
    "RT": 897,
    "action": 0,
    "reward": -1.6
  },
  {
    "phase": "TASK",
    "condition": "Cond2",
    "trial_num": 34,
    "trial_length": 7,
    "click_num": 7,
    "RT": 3033,
    "action": 1,
    "reward": -3.6
  },
  {
    "phase": "TASK",
    "condition": "Cond2",
    "trial_num": 35,
    "trial_length": 10,
    "click_num": 1,
    "RT": 1622,
    "action": 1,
    "reward": -3.8
  },
  {
    "phase": "TASK",
    "condition": "Cond2",
    "trial_num": 35,
    "trial_length": 10,
    "click_num": 2,
    "RT": 2120,
    "action": 1,
    "reward": -3.8
  },
  {
    "phase": "TASK",
    "condition": "Cond2",
    "trial_num": 35,
    "trial_length": 10,
    "click_num": 3,
    "RT": 1122,
    "action": 1,
    "reward": -3.3
  },
  {
    "phase": "TASK",
    "condition": "Cond2",
    "trial_num": 35,
    "trial_length": 10,
    "click_num": 4,
    "RT": 1886,
    "action": 0,
    "reward": -3.3
  },
  {
    "phase": "TASK",
    "condition": "Cond2",
    "trial_num": 35,
    "trial_length": 10,
    "click_num": 5,
    "RT": 1080,
    "action": 1,
    "reward": -3
  },
  {
    "phase": "TASK",
    "condition": "Cond2",
    "trial_num": 35,
    "trial_length": 10,
    "click_num": 6,
    "RT": 1352,
    "action": 1,
    "reward": -3.6
  },
  {
    "phase": "TASK",
    "condition": "Cond2",
    "trial_num": 35,
    "trial_length": 10,
    "click_num": 7,
    "RT": 1239,
    "action": 1,
    "reward": -2.9
  },
  {
    "phase": "TASK",
    "condition": "Cond2",
    "trial_num": 35,
    "trial_length": 10,
    "click_num": 8,
    "RT": 1408,
    "action": 1,
    "reward": -3.2
  },
  {
    "phase": "TASK",
    "condition": "Cond2",
    "trial_num": 35,
    "trial_length": 10,
    "click_num": 9,
    "RT": 1025,
    "action": 1,
    "reward": -1.9
  },
  {
    "phase": "TASK",
    "condition": "Cond2",
    "trial_num": 35,
    "trial_length": 10,
    "click_num": 10,
    "RT": 1456,
    "action": 0,
    "reward": -1.9
  },
  {
    "phase": "TASK",
    "condition": "Cond2",
    "trial_num": 36,
    "trial_length": 7,
    "click_num": 1,
    "RT": 1637,
    "action": 1,
    "reward": -4
  },
  {
    "phase": "TASK",
    "condition": "Cond2",
    "trial_num": 36,
    "trial_length": 7,
    "click_num": 2,
    "RT": 1218,
    "action": 1,
    "reward": -3.4
  },
  {
    "phase": "TASK",
    "condition": "Cond2",
    "trial_num": 36,
    "trial_length": 7,
    "click_num": 3,
    "RT": 1663,
    "action": 1,
    "reward": -2.9
  },
  {
    "phase": "TASK",
    "condition": "Cond2",
    "trial_num": 36,
    "trial_length": 7,
    "click_num": 4,
    "RT": 1696,
    "action": 1,
    "reward": -2.7
  },
  {
    "phase": "TASK",
    "condition": "Cond2",
    "trial_num": 36,
    "trial_length": 7,
    "click_num": 5,
    "RT": 1519,
    "action": 1,
    "reward": -3.3
  },
  {
    "phase": "TASK",
    "condition": "Cond2",
    "trial_num": 36,
    "trial_length": 7,
    "click_num": 6,
    "RT": 1697,
    "action": 0,
    "reward": -2.7
  },
  {
    "phase": "TASK",
    "condition": "Cond2",
    "trial_num": 36,
    "trial_length": 7,
    "click_num": 7,
    "RT": 967,
    "action": 1,
    "reward": -2.8
  },
  {
    "phase": "TASK",
    "condition": "Cond2",
    "trial_num": 37,
    "trial_length": 5,
    "click_num": 1,
    "RT": 1479,
    "action": 1,
    "reward": -3.4
  },
  {
    "phase": "TASK",
    "condition": "Cond2",
    "trial_num": 37,
    "trial_length": 5,
    "click_num": 2,
    "RT": 1617,
    "action": 1,
    "reward": -2.3
  },
  {
    "phase": "TASK",
    "condition": "Cond2",
    "trial_num": 37,
    "trial_length": 5,
    "click_num": 3,
    "RT": 1672,
    "action": 0,
    "reward": -2.3
  },
  {
    "phase": "TASK",
    "condition": "Cond2",
    "trial_num": 37,
    "trial_length": 5,
    "click_num": 4,
    "RT": 927,
    "action": 0,
    "reward": -2.3
  },
  {
    "phase": "TASK",
    "condition": "Cond2",
    "trial_num": 37,
    "trial_length": 5,
    "click_num": 5,
    "RT": 864,
    "action": 1,
    "reward": -4
  },
  {
    "phase": "TASK",
    "condition": "Cond2",
    "trial_num": 38,
    "trial_length": 5,
    "click_num": 1,
    "RT": 1192,
    "action": 1,
    "reward": -2.6
  },
  {
    "phase": "TASK",
    "condition": "Cond2",
    "trial_num": 38,
    "trial_length": 5,
    "click_num": 2,
    "RT": 1936,
    "action": 1,
    "reward": -2.6
  },
  {
    "phase": "TASK",
    "condition": "Cond2",
    "trial_num": 38,
    "trial_length": 5,
    "click_num": 3,
    "RT": 1545,
    "action": 1,
    "reward": -2.3
  },
  {
    "phase": "TASK",
    "condition": "Cond2",
    "trial_num": 38,
    "trial_length": 5,
    "click_num": 4,
    "RT": 1431,
    "action": 0,
    "reward": -2.3
  },
  {
    "phase": "TASK",
    "condition": "Cond2",
    "trial_num": 38,
    "trial_length": 5,
    "click_num": 5,
    "RT": 1351,
    "action": 1,
    "reward": -3.6
  },
  {
    "phase": "TASK",
    "condition": "Cond2",
    "trial_num": 39,
    "trial_length": 8,
    "click_num": 1,
    "RT": 1655,
    "action": 1,
    "reward": -3.2
  },
  {
    "phase": "TASK",
    "condition": "Cond2",
    "trial_num": 39,
    "trial_length": 8,
    "click_num": 2,
    "RT": 1423,
    "action": 1,
    "reward": -2.8
  },
  {
    "phase": "TASK",
    "condition": "Cond2",
    "trial_num": 39,
    "trial_length": 8,
    "click_num": 3,
    "RT": 1288,
    "action": 1,
    "reward": -4.3
  },
  {
    "phase": "TASK",
    "condition": "Cond2",
    "trial_num": 39,
    "trial_length": 8,
    "click_num": 4,
    "RT": 1214,
    "action": 1,
    "reward": -2.2
  },
  {
    "phase": "TASK",
    "condition": "Cond2",
    "trial_num": 39,
    "trial_length": 8,
    "click_num": 5,
    "RT": 1307,
    "action": 0,
    "reward": -2.2
  },
  {
    "phase": "TASK",
    "condition": "Cond2",
    "trial_num": 39,
    "trial_length": 8,
    "click_num": 6,
    "RT": 911,
    "action": 0,
    "reward": -2.2
  },
  {
    "phase": "TASK",
    "condition": "Cond2",
    "trial_num": 39,
    "trial_length": 8,
    "click_num": 7,
    "RT": 952,
    "action": 0,
    "reward": -2.2
  },
  {
    "phase": "TASK",
    "condition": "Cond2",
    "trial_num": 39,
    "trial_length": 8,
    "click_num": 8,
    "RT": 784,
    "action": 1,
    "reward": -1.9
  },
  {
    "phase": "TASK",
    "condition": "Cond2",
    "trial_num": 40,
    "trial_length": 9,
    "click_num": 1,
    "RT": 1437,
    "action": 1,
    "reward": -2.2
  },
  {
    "phase": "TASK",
    "condition": "Cond2",
    "trial_num": 40,
    "trial_length": 9,
    "click_num": 2,
    "RT": 2344,
    "action": 0,
    "reward": -2.2
  },
  {
    "phase": "TASK",
    "condition": "Cond2",
    "trial_num": 40,
    "trial_length": 9,
    "click_num": 3,
    "RT": 768,
    "action": 0,
    "reward": -2.2
  },
  {
    "phase": "TASK",
    "condition": "Cond2",
    "trial_num": 40,
    "trial_length": 9,
    "click_num": 4,
    "RT": 761,
    "action": 0,
    "reward": -2.2
  },
  {
    "phase": "TASK",
    "condition": "Cond2",
    "trial_num": 40,
    "trial_length": 9,
    "click_num": 5,
    "RT": 1968,
    "action": 0,
    "reward": -2.2
  },
  {
    "phase": "TASK",
    "condition": "Cond2",
    "trial_num": 40,
    "trial_length": 9,
    "click_num": 6,
    "RT": 967,
    "action": 1,
    "reward": -4.4
  },
  {
    "phase": "TASK",
    "condition": "Cond2",
    "trial_num": 40,
    "trial_length": 9,
    "click_num": 7,
    "RT": 1361,
    "action": 0,
    "reward": -2.2
  },
  {
    "phase": "TASK",
    "condition": "Cond2",
    "trial_num": 40,
    "trial_length": 9,
    "click_num": 8,
    "RT": 1079,
    "action": 1,
    "reward": -3.6
  },
  {
    "phase": "TASK",
    "condition": "Cond2",
    "trial_num": 40,
    "trial_length": 9,
    "click_num": 9,
    "RT": 1456,
    "action": 0,
    "reward": -2.2
  },
  {
    "phase": "TASK",
    "condition": "Cond2",
    "trial_num": 41,
    "trial_length": 9,
    "click_num": 1,
    "RT": 1454,
    "action": 1,
    "reward": -3.5
  },
  {
    "phase": "TASK",
    "condition": "Cond2",
    "trial_num": 41,
    "trial_length": 9,
    "click_num": 2,
    "RT": 1392,
    "action": 1,
    "reward": -2.4
  },
  {
    "phase": "TASK",
    "condition": "Cond2",
    "trial_num": 41,
    "trial_length": 9,
    "click_num": 3,
    "RT": 1424,
    "action": 0,
    "reward": -2.4
  },
  {
    "phase": "TASK",
    "condition": "Cond2",
    "trial_num": 41,
    "trial_length": 9,
    "click_num": 4,
    "RT": 1482,
    "action": 0,
    "reward": -2.4
  },
  {
    "phase": "TASK",
    "condition": "Cond2",
    "trial_num": 41,
    "trial_length": 9,
    "click_num": 5,
    "RT": 974,
    "action": 0,
    "reward": -2.4
  },
  {
    "phase": "TASK",
    "condition": "Cond2",
    "trial_num": 41,
    "trial_length": 9,
    "click_num": 6,
    "RT": 1192,
    "action": 1,
    "reward": -1.9
  },
  {
    "phase": "TASK",
    "condition": "Cond2",
    "trial_num": 41,
    "trial_length": 9,
    "click_num": 7,
    "RT": 1399,
    "action": 0,
    "reward": -1.9
  },
  {
    "phase": "TASK",
    "condition": "Cond2",
    "trial_num": 41,
    "trial_length": 9,
    "click_num": 8,
    "RT": 1108,
    "action": 0,
    "reward": -1.9
  },
  {
    "phase": "TASK",
    "condition": "Cond2",
    "trial_num": 41,
    "trial_length": 9,
    "click_num": 9,
    "RT": 901,
    "action": 0,
    "reward": -1.9
  },
  {
    "phase": "TASK",
    "condition": "Cond2",
    "trial_num": 42,
    "trial_length": 9,
    "click_num": 1,
    "RT": 1318,
    "action": 1,
    "reward": -3.5
  },
  {
    "phase": "TASK",
    "condition": "Cond2",
    "trial_num": 42,
    "trial_length": 9,
    "click_num": 2,
    "RT": 1194,
    "action": 1,
    "reward": -3.3
  },
  {
    "phase": "TASK",
    "condition": "Cond2",
    "trial_num": 42,
    "trial_length": 9,
    "click_num": 3,
    "RT": 1110,
    "action": 1,
    "reward": -2.4
  },
  {
    "phase": "TASK",
    "condition": "Cond2",
    "trial_num": 42,
    "trial_length": 9,
    "click_num": 4,
    "RT": 1527,
    "action": 0,
    "reward": -2.4
  },
  {
    "phase": "TASK",
    "condition": "Cond2",
    "trial_num": 42,
    "trial_length": 9,
    "click_num": 5,
    "RT": 896,
    "action": 0,
    "reward": -2.4
  },
  {
    "phase": "TASK",
    "condition": "Cond2",
    "trial_num": 42,
    "trial_length": 9,
    "click_num": 6,
    "RT": 936,
    "action": 1,
    "reward": -2.5
  },
  {
    "phase": "TASK",
    "condition": "Cond2",
    "trial_num": 42,
    "trial_length": 9,
    "click_num": 7,
    "RT": 1113,
    "action": 0,
    "reward": -2.4
  },
  {
    "phase": "TASK",
    "condition": "Cond2",
    "trial_num": 42,
    "trial_length": 9,
    "click_num": 8,
    "RT": 856,
    "action": 1,
    "reward": -3.1
  },
  {
    "phase": "TASK",
    "condition": "Cond2",
    "trial_num": 42,
    "trial_length": 9,
    "click_num": 9,
    "RT": 1152,
    "action": 0,
    "reward": -2.4
  },
  {
    "phase": "TASK",
    "condition": "Cond2",
    "trial_num": 43,
    "trial_length": 5,
    "click_num": 1,
    "RT": 1430,
    "action": 1,
    "reward": -2
  },
  {
    "phase": "TASK",
    "condition": "Cond2",
    "trial_num": 43,
    "trial_length": 5,
    "click_num": 2,
    "RT": 1497,
    "action": 0,
    "reward": -2
  },
  {
    "phase": "TASK",
    "condition": "Cond2",
    "trial_num": 43,
    "trial_length": 5,
    "click_num": 3,
    "RT": 967,
    "action": 0,
    "reward": -2
  },
  {
    "phase": "TASK",
    "condition": "Cond2",
    "trial_num": 43,
    "trial_length": 5,
    "click_num": 4,
    "RT": 1257,
    "action": 1,
    "reward": -2.9
  },
  {
    "phase": "TASK",
    "condition": "Cond2",
    "trial_num": 43,
    "trial_length": 5,
    "click_num": 5,
    "RT": 991,
    "action": 0,
    "reward": -2
  },
  {
    "phase": "TASK",
    "condition": "Cond2",
    "trial_num": 44,
    "trial_length": 7,
    "click_num": 1,
    "RT": 1672,
    "action": 1,
    "reward": -2.3
  },
  {
    "phase": "TASK",
    "condition": "Cond2",
    "trial_num": 44,
    "trial_length": 7,
    "click_num": 2,
    "RT": 1120,
    "action": 1,
    "reward": -3.4
  },
  {
    "phase": "TASK",
    "condition": "Cond2",
    "trial_num": 44,
    "trial_length": 7,
    "click_num": 3,
    "RT": 1595,
    "action": 0,
    "reward": -2.3
  },
  {
    "phase": "TASK",
    "condition": "Cond2",
    "trial_num": 44,
    "trial_length": 7,
    "click_num": 4,
    "RT": 822,
    "action": 0,
    "reward": -2.3
  },
  {
    "phase": "TASK",
    "condition": "Cond2",
    "trial_num": 44,
    "trial_length": 7,
    "click_num": 5,
    "RT": 1519,
    "action": 1,
    "reward": -4.4
  },
  {
    "phase": "TASK",
    "condition": "Cond2",
    "trial_num": 44,
    "trial_length": 7,
    "click_num": 6,
    "RT": 1216,
    "action": 0,
    "reward": -2.3
  },
  {
    "phase": "TASK",
    "condition": "Cond2",
    "trial_num": 44,
    "trial_length": 7,
    "click_num": 7,
    "RT": 1034,
    "action": 0,
    "reward": -2.3
  },
  {
    "phase": "TASK",
    "condition": "Cond2",
    "trial_num": 45,
    "trial_length": 9,
    "click_num": 1,
    "RT": 1343,
    "action": 1,
    "reward": -2
  },
  {
    "phase": "TASK",
    "condition": "Cond2",
    "trial_num": 45,
    "trial_length": 9,
    "click_num": 2,
    "RT": 1752,
    "action": 0,
    "reward": -2
  },
  {
    "phase": "TASK",
    "condition": "Cond2",
    "trial_num": 45,
    "trial_length": 9,
    "click_num": 3,
    "RT": 903,
    "action": 0,
    "reward": -2
  },
  {
    "phase": "TASK",
    "condition": "Cond2",
    "trial_num": 45,
    "trial_length": 9,
    "click_num": 4,
    "RT": 900,
    "action": 0,
    "reward": -2
  },
  {
    "phase": "TASK",
    "condition": "Cond2",
    "trial_num": 45,
    "trial_length": 9,
    "click_num": 5,
    "RT": 1181,
    "action": 0,
    "reward": -2
  },
  {
    "phase": "TASK",
    "condition": "Cond2",
    "trial_num": 45,
    "trial_length": 9,
    "click_num": 6,
    "RT": 880,
    "action": 0,
    "reward": -2
  },
  {
    "phase": "TASK",
    "condition": "Cond2",
    "trial_num": 45,
    "trial_length": 9,
    "click_num": 7,
    "RT": 879,
    "action": 1,
    "reward": -3
  },
  {
    "phase": "TASK",
    "condition": "Cond2",
    "trial_num": 45,
    "trial_length": 9,
    "click_num": 8,
    "RT": 1104,
    "action": 0,
    "reward": -2
  },
  {
    "phase": "TASK",
    "condition": "Cond2",
    "trial_num": 45,
    "trial_length": 9,
    "click_num": 9,
    "RT": 873,
    "action": 1,
    "reward": -2.9
  },
  {
    "phase": "TASK",
    "condition": "Cond2",
    "trial_num": 46,
    "trial_length": 10,
    "click_num": 1,
    "RT": 1310,
    "action": 1,
    "reward": -3.7
  },
  {
    "phase": "TASK",
    "condition": "Cond2",
    "trial_num": 46,
    "trial_length": 10,
    "click_num": 2,
    "RT": 1480,
    "action": 1,
    "reward": -3.5
  },
  {
    "phase": "TASK",
    "condition": "Cond2",
    "trial_num": 46,
    "trial_length": 10,
    "click_num": 3,
    "RT": 1032,
    "action": 1,
    "reward": -2
  },
  {
    "phase": "TASK",
    "condition": "Cond2",
    "trial_num": 46,
    "trial_length": 10,
    "click_num": 4,
    "RT": 1641,
    "action": 0,
    "reward": -2
  },
  {
    "phase": "TASK",
    "condition": "Cond2",
    "trial_num": 46,
    "trial_length": 10,
    "click_num": 5,
    "RT": 952,
    "action": 0,
    "reward": -2
  },
  {
    "phase": "TASK",
    "condition": "Cond2",
    "trial_num": 46,
    "trial_length": 10,
    "click_num": 6,
    "RT": 1112,
    "action": 0,
    "reward": -2
  },
  {
    "phase": "TASK",
    "condition": "Cond2",
    "trial_num": 46,
    "trial_length": 10,
    "click_num": 7,
    "RT": 791,
    "action": 0,
    "reward": -2
  },
  {
    "phase": "TASK",
    "condition": "Cond2",
    "trial_num": 46,
    "trial_length": 10,
    "click_num": 8,
    "RT": 887,
    "action": 0,
    "reward": -2
  },
  {
    "phase": "TASK",
    "condition": "Cond2",
    "trial_num": 46,
    "trial_length": 10,
    "click_num": 9,
    "RT": 1498,
    "action": 1,
    "reward": -4.2
  },
  {
    "phase": "TASK",
    "condition": "Cond2",
    "trial_num": 46,
    "trial_length": 10,
    "click_num": 10,
    "RT": 1367,
    "action": 1,
    "reward": -1.8
  },
  {
    "phase": "TASK",
    "condition": "Cond2",
    "trial_num": 47,
    "trial_length": 6,
    "click_num": 1,
    "RT": 1671,
    "action": 1,
    "reward": -2.8
  },
  {
    "phase": "TASK",
    "condition": "Cond2",
    "trial_num": 47,
    "trial_length": 6,
    "click_num": 2,
    "RT": 3008,
    "action": 1,
    "reward": -2.7
  },
  {
    "phase": "TASK",
    "condition": "Cond2",
    "trial_num": 47,
    "trial_length": 6,
    "click_num": 3,
    "RT": 1415,
    "action": 1,
    "reward": -2.6
  },
  {
    "phase": "TASK",
    "condition": "Cond2",
    "trial_num": 47,
    "trial_length": 6,
    "click_num": 4,
    "RT": 2073,
    "action": 0,
    "reward": -2.6
  },
  {
    "phase": "TASK",
    "condition": "Cond2",
    "trial_num": 47,
    "trial_length": 6,
    "click_num": 5,
    "RT": 2167,
    "action": 0,
    "reward": -2.6
  },
  {
    "phase": "TASK",
    "condition": "Cond2",
    "trial_num": 47,
    "trial_length": 6,
    "click_num": 6,
    "RT": 840,
    "action": 1,
    "reward": -3.3
  },
  {
    "phase": "TASK",
    "condition": "Cond2",
    "trial_num": 48,
    "trial_length": 5,
    "click_num": 1,
    "RT": 1424,
    "action": 1,
    "reward": -2.5
  },
  {
    "phase": "TASK",
    "condition": "Cond2",
    "trial_num": 48,
    "trial_length": 5,
    "click_num": 2,
    "RT": 2333,
    "action": 1,
    "reward": -2.7
  },
  {
    "phase": "TASK",
    "condition": "Cond2",
    "trial_num": 48,
    "trial_length": 5,
    "click_num": 3,
    "RT": 1768,
    "action": 0,
    "reward": -2.5
  },
  {
    "phase": "TASK",
    "condition": "Cond2",
    "trial_num": 48,
    "trial_length": 5,
    "click_num": 4,
    "RT": 872,
    "action": 0,
    "reward": -2.5
  },
  {
    "phase": "TASK",
    "condition": "Cond2",
    "trial_num": 48,
    "trial_length": 5,
    "click_num": 5,
    "RT": 800,
    "action": 1,
    "reward": -2.5
  },
  {
    "phase": "TASK",
    "condition": "Cond2",
    "trial_num": 49,
    "trial_length": 7,
    "click_num": 1,
    "RT": 1241,
    "action": 1,
    "reward": -2.9
  },
  {
    "phase": "TASK",
    "condition": "Cond2",
    "trial_num": 49,
    "trial_length": 7,
    "click_num": 2,
    "RT": 1615,
    "action": 1,
    "reward": -3.2
  },
  {
    "phase": "TASK",
    "condition": "Cond2",
    "trial_num": 49,
    "trial_length": 7,
    "click_num": 3,
    "RT": 1352,
    "action": 1,
    "reward": -2.8
  },
  {
    "phase": "TASK",
    "condition": "Cond2",
    "trial_num": 49,
    "trial_length": 7,
    "click_num": 4,
    "RT": 1406,
    "action": 1,
    "reward": -3.4
  },
  {
    "phase": "TASK",
    "condition": "Cond2",
    "trial_num": 49,
    "trial_length": 7,
    "click_num": 5,
    "RT": 1370,
    "action": 1,
    "reward": -3.7
  },
  {
    "phase": "TASK",
    "condition": "Cond2",
    "trial_num": 49,
    "trial_length": 7,
    "click_num": 6,
    "RT": 1680,
    "action": 0,
    "reward": -2.8
  },
  {
    "phase": "TASK",
    "condition": "Cond2",
    "trial_num": 49,
    "trial_length": 7,
    "click_num": 7,
    "RT": 1072,
    "action": 0,
    "reward": -2.8
  },
  {
    "phase": "TASK",
    "condition": "Cond2",
    "trial_num": 50,
    "trial_length": 10,
    "click_num": 1,
    "RT": 1544,
    "action": 1,
    "reward": -2.7
  },
  {
    "phase": "TASK",
    "condition": "Cond2",
    "trial_num": 50,
    "trial_length": 10,
    "click_num": 2,
    "RT": 1256,
    "action": 1,
    "reward": -4
  },
  {
    "phase": "TASK",
    "condition": "Cond2",
    "trial_num": 50,
    "trial_length": 10,
    "click_num": 3,
    "RT": 1376,
    "action": 1,
    "reward": -3.6
  },
  {
    "phase": "TASK",
    "condition": "Cond2",
    "trial_num": 50,
    "trial_length": 10,
    "click_num": 4,
    "RT": 1120,
    "action": 1,
    "reward": -2.9
  },
  {
    "phase": "TASK",
    "condition": "Cond2",
    "trial_num": 50,
    "trial_length": 10,
    "click_num": 5,
    "RT": 1551,
    "action": 1,
    "reward": -2.9
  },
  {
    "phase": "TASK",
    "condition": "Cond2",
    "trial_num": 50,
    "trial_length": 10,
    "click_num": 6,
    "RT": 1241,
    "action": 1,
    "reward": -3.2
  },
  {
    "phase": "TASK",
    "condition": "Cond2",
    "trial_num": 50,
    "trial_length": 10,
    "click_num": 7,
    "RT": 928,
    "action": 0,
    "reward": -2.7
  },
  {
    "phase": "TASK",
    "condition": "Cond2",
    "trial_num": 50,
    "trial_length": 10,
    "click_num": 8,
    "RT": 771,
    "action": 0,
    "reward": -2.7
  },
  {
    "phase": "TASK",
    "condition": "Cond2",
    "trial_num": 50,
    "trial_length": 10,
    "click_num": 9,
    "RT": 1141,
    "action": 0,
    "reward": -2.7
  },
  {
    "phase": "TASK",
    "condition": "Cond2",
    "trial_num": 50,
    "trial_length": 10,
    "click_num": 10,
    "RT": 864,
    "action": 1,
    "reward": -2.5
  },
  {
    "phase": "TASK",
    "condition": "Cond2",
    "trial_num": 51,
    "trial_length": 9,
    "click_num": 1,
    "RT": 1521,
    "action": 1,
    "reward": -2.5
  },
  {
    "phase": "TASK",
    "condition": "Cond2",
    "trial_num": 51,
    "trial_length": 9,
    "click_num": 2,
    "RT": 1741,
    "action": 0,
    "reward": -2.5
  },
  {
    "phase": "TASK",
    "condition": "Cond2",
    "trial_num": 51,
    "trial_length": 9,
    "click_num": 3,
    "RT": 1201,
    "action": 0,
    "reward": -2.5
  },
  {
    "phase": "TASK",
    "condition": "Cond2",
    "trial_num": 51,
    "trial_length": 9,
    "click_num": 4,
    "RT": 1954,
    "action": 1,
    "reward": -3
  },
  {
    "phase": "TASK",
    "condition": "Cond2",
    "trial_num": 51,
    "trial_length": 9,
    "click_num": 5,
    "RT": 1269,
    "action": 0,
    "reward": -2.5
  },
  {
    "phase": "TASK",
    "condition": "Cond2",
    "trial_num": 51,
    "trial_length": 9,
    "click_num": 6,
    "RT": 904,
    "action": 1,
    "reward": -2.8
  },
  {
    "phase": "TASK",
    "condition": "Cond2",
    "trial_num": 51,
    "trial_length": 9,
    "click_num": 7,
    "RT": 1655,
    "action": 0,
    "reward": -2.5
  },
  {
    "phase": "TASK",
    "condition": "Cond2",
    "trial_num": 51,
    "trial_length": 9,
    "click_num": 8,
    "RT": 928,
    "action": 1,
    "reward": -3.7
  },
  {
    "phase": "TASK",
    "condition": "Cond2",
    "trial_num": 51,
    "trial_length": 9,
    "click_num": 9,
    "RT": 1049,
    "action": 0,
    "reward": -2.5
  },
  {
    "phase": "TASK",
    "condition": "Cond2",
    "trial_num": 52,
    "trial_length": 6,
    "click_num": 1,
    "RT": 1463,
    "action": 1,
    "reward": -2.8
  },
  {
    "phase": "TASK",
    "condition": "Cond2",
    "trial_num": 52,
    "trial_length": 6,
    "click_num": 2,
    "RT": 1159,
    "action": 1,
    "reward": -3
  },
  {
    "phase": "TASK",
    "condition": "Cond2",
    "trial_num": 52,
    "trial_length": 6,
    "click_num": 3,
    "RT": 1172,
    "action": 1,
    "reward": -2.3
  },
  {
    "phase": "TASK",
    "condition": "Cond2",
    "trial_num": 52,
    "trial_length": 6,
    "click_num": 4,
    "RT": 1181,
    "action": 0,
    "reward": -2.3
  },
  {
    "phase": "TASK",
    "condition": "Cond2",
    "trial_num": 52,
    "trial_length": 6,
    "click_num": 5,
    "RT": 864,
    "action": 0,
    "reward": -2.3
  },
  {
    "phase": "TASK",
    "condition": "Cond2",
    "trial_num": 52,
    "trial_length": 6,
    "click_num": 6,
    "RT": 991,
    "action": 1,
    "reward": -2.5
  },
  {
    "phase": "TASK",
    "condition": "Cond2",
    "trial_num": 53,
    "trial_length": 10,
    "click_num": 1,
    "RT": 1261,
    "action": 1,
    "reward": -3.1
  },
  {
    "phase": "TASK",
    "condition": "Cond2",
    "trial_num": 53,
    "trial_length": 10,
    "click_num": 2,
    "RT": 1719,
    "action": 1,
    "reward": -2.6
  },
  {
    "phase": "TASK",
    "condition": "Cond2",
    "trial_num": 53,
    "trial_length": 10,
    "click_num": 3,
    "RT": 1384,
    "action": 0,
    "reward": -2.6
  },
  {
    "phase": "TASK",
    "condition": "Cond2",
    "trial_num": 53,
    "trial_length": 10,
    "click_num": 4,
    "RT": 843,
    "action": 0,
    "reward": -2.6
  },
  {
    "phase": "TASK",
    "condition": "Cond2",
    "trial_num": 53,
    "trial_length": 10,
    "click_num": 5,
    "RT": 878,
    "action": 1,
    "reward": -1.9
  },
  {
    "phase": "TASK",
    "condition": "Cond2",
    "trial_num": 53,
    "trial_length": 10,
    "click_num": 6,
    "RT": 1975,
    "action": 0,
    "reward": -1.9
  },
  {
    "phase": "TASK",
    "condition": "Cond2",
    "trial_num": 53,
    "trial_length": 10,
    "click_num": 7,
    "RT": 799,
    "action": 0,
    "reward": -1.9
  },
  {
    "phase": "TASK",
    "condition": "Cond2",
    "trial_num": 53,
    "trial_length": 10,
    "click_num": 8,
    "RT": 777,
    "action": 0,
    "reward": -1.9
  },
  {
    "phase": "TASK",
    "condition": "Cond2",
    "trial_num": 53,
    "trial_length": 10,
    "click_num": 9,
    "RT": 767,
    "action": 0,
    "reward": -1.9
  },
  {
    "phase": "TASK",
    "condition": "Cond2",
    "trial_num": 53,
    "trial_length": 10,
    "click_num": 10,
    "RT": 1369,
    "action": 0,
    "reward": -1.9
  },
  {
    "phase": "TASK",
    "condition": "Cond2",
    "trial_num": 54,
    "trial_length": 6,
    "click_num": 1,
    "RT": 1421,
    "action": 1,
    "reward": -3.3
  },
  {
    "phase": "TASK",
    "condition": "Cond2",
    "trial_num": 54,
    "trial_length": 6,
    "click_num": 2,
    "RT": 1472,
    "action": 1,
    "reward": -2.8
  },
  {
    "phase": "TASK",
    "condition": "Cond2",
    "trial_num": 54,
    "trial_length": 6,
    "click_num": 3,
    "RT": 1288,
    "action": 1,
    "reward": -3.1
  },
  {
    "phase": "TASK",
    "condition": "Cond2",
    "trial_num": 54,
    "trial_length": 6,
    "click_num": 4,
    "RT": 1120,
    "action": 1,
    "reward": -2.8
  },
  {
    "phase": "TASK",
    "condition": "Cond2",
    "trial_num": 54,
    "trial_length": 6,
    "click_num": 5,
    "RT": 1176,
    "action": 0,
    "reward": -2.8
  },
  {
    "phase": "TASK",
    "condition": "Cond2",
    "trial_num": 54,
    "trial_length": 6,
    "click_num": 6,
    "RT": 986,
    "action": 1,
    "reward": -2.6
  },
  {
    "phase": "TASK",
    "condition": "Cond2",
    "trial_num": 55,
    "trial_length": 7,
    "click_num": 1,
    "RT": 1127,
    "action": 1,
    "reward": -3
  },
  {
    "phase": "TASK",
    "condition": "Cond2",
    "trial_num": 55,
    "trial_length": 7,
    "click_num": 2,
    "RT": 1223,
    "action": 1,
    "reward": -3.5
  },
  {
    "phase": "TASK",
    "condition": "Cond2",
    "trial_num": 55,
    "trial_length": 7,
    "click_num": 3,
    "RT": 1065,
    "action": 1,
    "reward": -3.8
  },
  {
    "phase": "TASK",
    "condition": "Cond2",
    "trial_num": 55,
    "trial_length": 7,
    "click_num": 4,
    "RT": 912,
    "action": 1,
    "reward": -2.7
  },
  {
    "phase": "TASK",
    "condition": "Cond2",
    "trial_num": 55,
    "trial_length": 7,
    "click_num": 5,
    "RT": 1238,
    "action": 0,
    "reward": -2.7
  },
  {
    "phase": "TASK",
    "condition": "Cond2",
    "trial_num": 55,
    "trial_length": 7,
    "click_num": 6,
    "RT": 1122,
    "action": 0,
    "reward": -2.7
  },
  {
    "phase": "TASK",
    "condition": "Cond2",
    "trial_num": 55,
    "trial_length": 7,
    "click_num": 7,
    "RT": 776,
    "action": 1,
    "reward": -2.3
  },
  {
    "phase": "TASK",
    "condition": "Cond2",
    "trial_num": 56,
    "trial_length": 6,
    "click_num": 1,
    "RT": 1213,
    "action": 1,
    "reward": -3.2
  },
  {
    "phase": "TASK",
    "condition": "Cond2",
    "trial_num": 56,
    "trial_length": 6,
    "click_num": 2,
    "RT": 1335,
    "action": 1,
    "reward": -2.7
  },
  {
    "phase": "TASK",
    "condition": "Cond2",
    "trial_num": 56,
    "trial_length": 6,
    "click_num": 3,
    "RT": 1055,
    "action": 1,
    "reward": -2.9
  },
  {
    "phase": "TASK",
    "condition": "Cond2",
    "trial_num": 56,
    "trial_length": 6,
    "click_num": 4,
    "RT": 984,
    "action": 1,
    "reward": -3.9
  },
  {
    "phase": "TASK",
    "condition": "Cond2",
    "trial_num": 56,
    "trial_length": 6,
    "click_num": 5,
    "RT": 966,
    "action": 1,
    "reward": -3.3
  },
  {
    "phase": "TASK",
    "condition": "Cond2",
    "trial_num": 56,
    "trial_length": 6,
    "click_num": 6,
    "RT": 1176,
    "action": 0,
    "reward": -2.7
  },
  {
    "phase": "TASK",
    "condition": "Cond2",
    "trial_num": 57,
    "trial_length": 9,
    "click_num": 1,
    "RT": 1429,
    "action": 1,
    "reward": -2.7
  },
  {
    "phase": "TASK",
    "condition": "Cond2",
    "trial_num": 57,
    "trial_length": 9,
    "click_num": 2,
    "RT": 1832,
    "action": 1,
    "reward": -2.8
  },
  {
    "phase": "TASK",
    "condition": "Cond2",
    "trial_num": 57,
    "trial_length": 9,
    "click_num": 3,
    "RT": 1089,
    "action": 1,
    "reward": -3.4
  },
  {
    "phase": "TASK",
    "condition": "Cond2",
    "trial_num": 57,
    "trial_length": 9,
    "click_num": 4,
    "RT": 1080,
    "action": 1,
    "reward": -3.7
  },
  {
    "phase": "TASK",
    "condition": "Cond2",
    "trial_num": 57,
    "trial_length": 9,
    "click_num": 5,
    "RT": 1040,
    "action": 1,
    "reward": -2.1
  },
  {
    "phase": "TASK",
    "condition": "Cond2",
    "trial_num": 57,
    "trial_length": 9,
    "click_num": 6,
    "RT": 1256,
    "action": 0,
    "reward": -2.1
  },
  {
    "phase": "TASK",
    "condition": "Cond2",
    "trial_num": 57,
    "trial_length": 9,
    "click_num": 7,
    "RT": 775,
    "action": 0,
    "reward": -2.1
  },
  {
    "phase": "TASK",
    "condition": "Cond2",
    "trial_num": 57,
    "trial_length": 9,
    "click_num": 8,
    "RT": 763,
    "action": 0,
    "reward": -2.1
  },
  {
    "phase": "TASK",
    "condition": "Cond2",
    "trial_num": 57,
    "trial_length": 9,
    "click_num": 9,
    "RT": 780,
    "action": 0,
    "reward": -2.1
  },
  {
    "phase": "TASK",
    "condition": "Cond2",
    "trial_num": 58,
    "trial_length": 7,
    "click_num": 1,
    "RT": 1173,
    "action": 1,
    "reward": -3.7
  },
  {
    "phase": "TASK",
    "condition": "Cond2",
    "trial_num": 58,
    "trial_length": 7,
    "click_num": 2,
    "RT": 1161,
    "action": 1,
    "reward": -4.2
  },
  {
    "phase": "TASK",
    "condition": "Cond2",
    "trial_num": 58,
    "trial_length": 7,
    "click_num": 3,
    "RT": 1128,
    "action": 1,
    "reward": -3.4
  },
  {
    "phase": "TASK",
    "condition": "Cond2",
    "trial_num": 58,
    "trial_length": 7,
    "click_num": 4,
    "RT": 944,
    "action": 1,
    "reward": -2.6
  },
  {
    "phase": "TASK",
    "condition": "Cond2",
    "trial_num": 58,
    "trial_length": 7,
    "click_num": 5,
    "RT": 1968,
    "action": 0,
    "reward": -2.6
  },
  {
    "phase": "TASK",
    "condition": "Cond2",
    "trial_num": 58,
    "trial_length": 7,
    "click_num": 6,
    "RT": 1072,
    "action": 0,
    "reward": -2.6
  },
  {
    "phase": "TASK",
    "condition": "Cond2",
    "trial_num": 58,
    "trial_length": 7,
    "click_num": 7,
    "RT": 880,
    "action": 1,
    "reward": -3
  },
  {
    "phase": "TASK",
    "condition": "Cond2",
    "trial_num": 59,
    "trial_length": 9,
    "click_num": 1,
    "RT": 1232,
    "action": 1,
    "reward": -2.4
  },
  {
    "phase": "TASK",
    "condition": "Cond2",
    "trial_num": 59,
    "trial_length": 9,
    "click_num": 2,
    "RT": 1959,
    "action": 0,
    "reward": -2.4
  },
  {
    "phase": "TASK",
    "condition": "Cond2",
    "trial_num": 59,
    "trial_length": 9,
    "click_num": 3,
    "RT": 744,
    "action": 0,
    "reward": -2.4
  },
  {
    "phase": "TASK",
    "condition": "Cond2",
    "trial_num": 59,
    "trial_length": 9,
    "click_num": 4,
    "RT": 929,
    "action": 1,
    "reward": -3.4
  },
  {
    "phase": "TASK",
    "condition": "Cond2",
    "trial_num": 59,
    "trial_length": 9,
    "click_num": 5,
    "RT": 1279,
    "action": 0,
    "reward": -2.4
  },
  {
    "phase": "TASK",
    "condition": "Cond2",
    "trial_num": 59,
    "trial_length": 9,
    "click_num": 6,
    "RT": 904,
    "action": 1,
    "reward": -2.3
  },
  {
    "phase": "TASK",
    "condition": "Cond2",
    "trial_num": 59,
    "trial_length": 9,
    "click_num": 7,
    "RT": 1449,
    "action": 0,
    "reward": -2.3
  },
  {
    "phase": "TASK",
    "condition": "Cond2",
    "trial_num": 59,
    "trial_length": 9,
    "click_num": 8,
    "RT": 1871,
    "action": 1,
    "reward": -1.7
  },
  {
    "phase": "TASK",
    "condition": "Cond2",
    "trial_num": 59,
    "trial_length": 9,
    "click_num": 9,
    "RT": 1056,
    "action": 0,
    "reward": -1.7
  },
  {
    "phase": "TASK",
    "condition": "Cond2",
    "trial_num": 60,
    "trial_length": 6,
    "click_num": 1,
    "RT": 1360,
    "action": 1,
    "reward": -2.4
  },
  {
    "phase": "TASK",
    "condition": "Cond2",
    "trial_num": 60,
    "trial_length": 6,
    "click_num": 2,
    "RT": 2624,
    "action": 0,
    "reward": -2.4
  },
  {
    "phase": "TASK",
    "condition": "Cond2",
    "trial_num": 60,
    "trial_length": 6,
    "click_num": 3,
    "RT": 955,
    "action": 1,
    "reward": -3.1
  },
  {
    "phase": "TASK",
    "condition": "Cond2",
    "trial_num": 60,
    "trial_length": 6,
    "click_num": 4,
    "RT": 1085,
    "action": 0,
    "reward": -2.4
  },
  {
    "phase": "TASK",
    "condition": "Cond2",
    "trial_num": 60,
    "trial_length": 6,
    "click_num": 5,
    "RT": 888,
    "action": 1,
    "reward": -2.7
  },
  {
    "phase": "TASK",
    "condition": "Cond2",
    "trial_num": 60,
    "trial_length": 6,
    "click_num": 6,
    "RT": 1088,
    "action": 0,
    "reward": -2.4
  },
  {
    "phase": "TASK",
    "condition": "Cond2",
    "trial_num": 61,
    "trial_length": 10,
    "click_num": 1,
    "RT": 1224,
    "action": 1,
    "reward": -2.5
  },
  {
    "phase": "TASK",
    "condition": "Cond2",
    "trial_num": 61,
    "trial_length": 10,
    "click_num": 2,
    "RT": 2671,
    "action": 1,
    "reward": -2.8
  },
  {
    "phase": "TASK",
    "condition": "Cond2",
    "trial_num": 61,
    "trial_length": 10,
    "click_num": 3,
    "RT": 1571,
    "action": 0,
    "reward": -2.5
  },
  {
    "phase": "TASK",
    "condition": "Cond2",
    "trial_num": 61,
    "trial_length": 10,
    "click_num": 4,
    "RT": 1118,
    "action": 0,
    "reward": -2.5
  },
  {
    "phase": "TASK",
    "condition": "Cond2",
    "trial_num": 61,
    "trial_length": 10,
    "click_num": 5,
    "RT": 1151,
    "action": 1,
    "reward": -2.7
  },
  {
    "phase": "TASK",
    "condition": "Cond2",
    "trial_num": 61,
    "trial_length": 10,
    "click_num": 6,
    "RT": 1307,
    "action": 0,
    "reward": -2.5
  },
  {
    "phase": "TASK",
    "condition": "Cond2",
    "trial_num": 61,
    "trial_length": 10,
    "click_num": 7,
    "RT": 877,
    "action": 1,
    "reward": -2.9
  },
  {
    "phase": "TASK",
    "condition": "Cond2",
    "trial_num": 61,
    "trial_length": 10,
    "click_num": 8,
    "RT": 1577,
    "action": 0,
    "reward": -2.5
  },
  {
    "phase": "TASK",
    "condition": "Cond2",
    "trial_num": 61,
    "trial_length": 10,
    "click_num": 9,
    "RT": 2470,
    "action": 1,
    "reward": -3.4
  },
  {
    "phase": "TASK",
    "condition": "Cond2",
    "trial_num": 61,
    "trial_length": 10,
    "click_num": 10,
    "RT": 1672,
    "action": 0,
    "reward": -2.5
  },
  {
    "phase": "TASK",
    "condition": "Cond2",
    "trial_num": 62,
    "trial_length": 10,
    "click_num": 1,
    "RT": 1500,
    "action": 1,
    "reward": -3.2
  },
  {
    "phase": "TASK",
    "condition": "Cond2",
    "trial_num": 62,
    "trial_length": 10,
    "click_num": 2,
    "RT": 3079,
    "action": 1,
    "reward": -2.8
  },
  {
    "phase": "TASK",
    "condition": "Cond2",
    "trial_num": 62,
    "trial_length": 10,
    "click_num": 3,
    "RT": 1472,
    "action": 0,
    "reward": -2.8
  },
  {
    "phase": "TASK",
    "condition": "Cond2",
    "trial_num": 62,
    "trial_length": 10,
    "click_num": 4,
    "RT": 1385,
    "action": 0,
    "reward": -2.8
  },
  {
    "phase": "TASK",
    "condition": "Cond2",
    "trial_num": 62,
    "trial_length": 10,
    "click_num": 5,
    "RT": 952,
    "action": 1,
    "reward": -3
  },
  {
    "phase": "TASK",
    "condition": "Cond2",
    "trial_num": 62,
    "trial_length": 10,
    "click_num": 6,
    "RT": 2343,
    "action": 1,
    "reward": -3.1
  },
  {
    "phase": "TASK",
    "condition": "Cond2",
    "trial_num": 62,
    "trial_length": 10,
    "click_num": 7,
    "RT": 1024,
    "action": 1,
    "reward": -3.5
  },
  {
    "phase": "TASK",
    "condition": "Cond2",
    "trial_num": 62,
    "trial_length": 10,
    "click_num": 8,
    "RT": 1457,
    "action": 1,
    "reward": -2.5
  },
  {
    "phase": "TASK",
    "condition": "Cond2",
    "trial_num": 62,
    "trial_length": 10,
    "click_num": 9,
    "RT": 1191,
    "action": 0,
    "reward": -2.5
  },
  {
    "phase": "TASK",
    "condition": "Cond2",
    "trial_num": 62,
    "trial_length": 10,
    "click_num": 10,
    "RT": 760,
    "action": 0,
    "reward": -2.5
  },
  {
    "phase": "TASK",
    "condition": "Cond2",
    "trial_num": 63,
    "trial_length": 8,
    "click_num": 1,
    "RT": 2111,
    "action": 1,
    "reward": -3.6
  },
  {
    "phase": "TASK",
    "condition": "Cond2",
    "trial_num": 63,
    "trial_length": 8,
    "click_num": 2,
    "RT": 1736,
    "action": 1,
    "reward": -1.1
  },
  {
    "phase": "TASK",
    "condition": "Cond2",
    "trial_num": 63,
    "trial_length": 8,
    "click_num": 3,
    "RT": 2208,
    "action": 0,
    "reward": -1.1
  },
  {
    "phase": "TASK",
    "condition": "Cond2",
    "trial_num": 63,
    "trial_length": 8,
    "click_num": 4,
    "RT": 1023,
    "action": 0,
    "reward": -1.1
  },
  {
    "phase": "TASK",
    "condition": "Cond2",
    "trial_num": 63,
    "trial_length": 8,
    "click_num": 5,
    "RT": 1009,
    "action": 0,
    "reward": -1.1
  },
  {
    "phase": "TASK",
    "condition": "Cond2",
    "trial_num": 63,
    "trial_length": 8,
    "click_num": 6,
    "RT": 976,
    "action": 0,
    "reward": -1.1
  },
  {
    "phase": "TASK",
    "condition": "Cond2",
    "trial_num": 63,
    "trial_length": 8,
    "click_num": 7,
    "RT": 863,
    "action": 0,
    "reward": -1.1
  },
  {
    "phase": "TASK",
    "condition": "Cond2",
    "trial_num": 63,
    "trial_length": 8,
    "click_num": 8,
    "RT": 913,
    "action": 0,
    "reward": -1.1
  },
  {
    "phase": "TASK",
    "condition": "Cond2",
    "trial_num": 64,
    "trial_length": 5,
    "click_num": 1,
    "RT": 1272,
    "action": 1,
    "reward": -3.3
  },
  {
    "phase": "TASK",
    "condition": "Cond2",
    "trial_num": 64,
    "trial_length": 5,
    "click_num": 2,
    "RT": 1329,
    "action": 1,
    "reward": -3.6
  },
  {
    "phase": "TASK",
    "condition": "Cond2",
    "trial_num": 64,
    "trial_length": 5,
    "click_num": 3,
    "RT": 1175,
    "action": 1,
    "reward": -2.7
  },
  {
    "phase": "TASK",
    "condition": "Cond2",
    "trial_num": 64,
    "trial_length": 5,
    "click_num": 4,
    "RT": 1049,
    "action": 0,
    "reward": -2.7
  },
  {
    "phase": "TASK",
    "condition": "Cond2",
    "trial_num": 64,
    "trial_length": 5,
    "click_num": 5,
    "RT": 1459,
    "action": 1,
    "reward": -3
  },
  {
    "phase": "TASK",
    "condition": "Cond2",
    "trial_num": 65,
    "trial_length": 8,
    "click_num": 1,
    "RT": 1888,
    "action": 1,
    "reward": -3.5
  },
  {
    "phase": "TASK",
    "condition": "Cond2",
    "trial_num": 65,
    "trial_length": 8,
    "click_num": 2,
    "RT": 1424,
    "action": 1,
    "reward": -3.8
  },
  {
    "phase": "TASK",
    "condition": "Cond2",
    "trial_num": 65,
    "trial_length": 8,
    "click_num": 3,
    "RT": 1040,
    "action": 1,
    "reward": -4.2
  },
  {
    "phase": "TASK",
    "condition": "Cond2",
    "trial_num": 65,
    "trial_length": 8,
    "click_num": 4,
    "RT": 1000,
    "action": 1,
    "reward": -4
  },
  {
    "phase": "TASK",
    "condition": "Cond2",
    "trial_num": 65,
    "trial_length": 8,
    "click_num": 5,
    "RT": 1144,
    "action": 1,
    "reward": -3.4
  },
  {
    "phase": "TASK",
    "condition": "Cond2",
    "trial_num": 65,
    "trial_length": 8,
    "click_num": 6,
    "RT": 1640,
    "action": 0,
    "reward": -3.4
  },
  {
    "phase": "TASK",
    "condition": "Cond2",
    "trial_num": 65,
    "trial_length": 8,
    "click_num": 7,
    "RT": 1272,
    "action": 1,
    "reward": -3.4
  },
  {
    "phase": "TASK",
    "condition": "Cond2",
    "trial_num": 65,
    "trial_length": 8,
    "click_num": 8,
    "RT": 1568,
    "action": 1,
    "reward": -3.5
  },
  {
    "phase": "TASK",
    "condition": "Cond2",
    "trial_num": 66,
    "trial_length": 9,
    "click_num": 1,
    "RT": 1351,
    "action": 1,
    "reward": -3.1
  },
  {
    "phase": "TASK",
    "condition": "Cond2",
    "trial_num": 66,
    "trial_length": 9,
    "click_num": 2,
    "RT": 1541,
    "action": 1,
    "reward": -2.4
  },
  {
    "phase": "TASK",
    "condition": "Cond2",
    "trial_num": 66,
    "trial_length": 9,
    "click_num": 3,
    "RT": 1960,
    "action": 0,
    "reward": -2.4
  },
  {
    "phase": "TASK",
    "condition": "Cond2",
    "trial_num": 66,
    "trial_length": 9,
    "click_num": 4,
    "RT": 737,
    "action": 0,
    "reward": -2.4
  },
  {
    "phase": "TASK",
    "condition": "Cond2",
    "trial_num": 66,
    "trial_length": 9,
    "click_num": 5,
    "RT": 696,
    "action": 0,
    "reward": -2.4
  },
  {
    "phase": "TASK",
    "condition": "Cond2",
    "trial_num": 66,
    "trial_length": 9,
    "click_num": 6,
    "RT": 951,
    "action": 1,
    "reward": -3.6
  },
  {
    "phase": "TASK",
    "condition": "Cond2",
    "trial_num": 66,
    "trial_length": 9,
    "click_num": 7,
    "RT": 968,
    "action": 0,
    "reward": -2.4
  },
  {
    "phase": "TASK",
    "condition": "Cond2",
    "trial_num": 66,
    "trial_length": 9,
    "click_num": 8,
    "RT": 834,
    "action": 1,
    "reward": -3.5
  },
  {
    "phase": "TASK",
    "condition": "Cond2",
    "trial_num": 66,
    "trial_length": 9,
    "click_num": 9,
    "RT": 1021,
    "action": 1,
    "reward": -2.8
  },
  {
    "phase": "TASK",
    "condition": "Cond2",
    "trial_num": 67,
    "trial_length": 5,
    "click_num": 1,
    "RT": 1255,
    "action": 1,
    "reward": -2.2
  },
  {
    "phase": "TASK",
    "condition": "Cond2",
    "trial_num": 67,
    "trial_length": 5,
    "click_num": 2,
    "RT": 2072,
    "action": 0,
    "reward": -2.2
  },
  {
    "phase": "TASK",
    "condition": "Cond2",
    "trial_num": 67,
    "trial_length": 5,
    "click_num": 3,
    "RT": 1001,
    "action": 0,
    "reward": -2.2
  },
  {
    "phase": "TASK",
    "condition": "Cond2",
    "trial_num": 67,
    "trial_length": 5,
    "click_num": 4,
    "RT": 1039,
    "action": 0,
    "reward": -2.2
  },
  {
    "phase": "TASK",
    "condition": "Cond2",
    "trial_num": 67,
    "trial_length": 5,
    "click_num": 5,
    "RT": 911,
    "action": 1,
    "reward": -3.6
  },
  {
    "phase": "TASK",
    "condition": "Cond2",
    "trial_num": 68,
    "trial_length": 8,
    "click_num": 1,
    "RT": 2090,
    "action": 1,
    "reward": -2.8
  },
  {
    "phase": "TASK",
    "condition": "Cond2",
    "trial_num": 68,
    "trial_length": 8,
    "click_num": 2,
    "RT": 1365,
    "action": 1,
    "reward": -3.1
  },
  {
    "phase": "TASK",
    "condition": "Cond2",
    "trial_num": 68,
    "trial_length": 8,
    "click_num": 3,
    "RT": 2063,
    "action": 1,
    "reward": -2.2
  },
  {
    "phase": "TASK",
    "condition": "Cond2",
    "trial_num": 68,
    "trial_length": 8,
    "click_num": 4,
    "RT": 1313,
    "action": 0,
    "reward": -2.2
  },
  {
    "phase": "TASK",
    "condition": "Cond2",
    "trial_num": 68,
    "trial_length": 8,
    "click_num": 5,
    "RT": 720,
    "action": 0,
    "reward": -2.2
  },
  {
    "phase": "TASK",
    "condition": "Cond2",
    "trial_num": 68,
    "trial_length": 8,
    "click_num": 6,
    "RT": 713,
    "action": 0,
    "reward": -2.2
  },
  {
    "phase": "TASK",
    "condition": "Cond2",
    "trial_num": 68,
    "trial_length": 8,
    "click_num": 7,
    "RT": 1151,
    "action": 0,
    "reward": -2.2
  },
  {
    "phase": "TASK",
    "condition": "Cond2",
    "trial_num": 68,
    "trial_length": 8,
    "click_num": 8,
    "RT": 976,
    "action": 1,
    "reward": -2.3
  },
  {
    "phase": "TASK",
    "condition": "Cond2",
    "trial_num": 69,
    "trial_length": 6,
    "click_num": 1,
    "RT": 2565,
    "action": 1,
    "reward": -1.6
  },
  {
    "phase": "TASK",
    "condition": "Cond2",
    "trial_num": 69,
    "trial_length": 6,
    "click_num": 2,
    "RT": 1477,
    "action": 0,
    "reward": -1.6
  },
  {
    "phase": "TASK",
    "condition": "Cond2",
    "trial_num": 69,
    "trial_length": 6,
    "click_num": 3,
    "RT": 1104,
    "action": 0,
    "reward": -1.6
  },
  {
    "phase": "TASK",
    "condition": "Cond2",
    "trial_num": 69,
    "trial_length": 6,
    "click_num": 4,
    "RT": 737,
    "action": 0,
    "reward": -1.6
  },
  {
    "phase": "TASK",
    "condition": "Cond2",
    "trial_num": 69,
    "trial_length": 6,
    "click_num": 5,
    "RT": 975,
    "action": 0,
    "reward": -1.6
  },
  {
    "phase": "TASK",
    "condition": "Cond2",
    "trial_num": 69,
    "trial_length": 6,
    "click_num": 6,
    "RT": 808,
    "action": 0,
    "reward": -1.6
  },
  {
    "phase": "TASK",
    "condition": "Cond2",
    "trial_num": 70,
    "trial_length": 7,
    "click_num": 1,
    "RT": 1355,
    "action": 1,
    "reward": -3.1
  },
  {
    "phase": "TASK",
    "condition": "Cond2",
    "trial_num": 70,
    "trial_length": 7,
    "click_num": 2,
    "RT": 1721,
    "action": 1,
    "reward": -4.2
  },
  {
    "phase": "TASK",
    "condition": "Cond2",
    "trial_num": 70,
    "trial_length": 7,
    "click_num": 3,
    "RT": 990,
    "action": 1,
    "reward": -3.9
  },
  {
    "phase": "TASK",
    "condition": "Cond2",
    "trial_num": 70,
    "trial_length": 7,
    "click_num": 4,
    "RT": 1575,
    "action": 1,
    "reward": -2
  },
  {
    "phase": "TASK",
    "condition": "Cond2",
    "trial_num": 70,
    "trial_length": 7,
    "click_num": 5,
    "RT": 1178,
    "action": 0,
    "reward": -2
  },
  {
    "phase": "TASK",
    "condition": "Cond2",
    "trial_num": 70,
    "trial_length": 7,
    "click_num": 6,
    "RT": 720,
    "action": 0,
    "reward": -2
  },
  {
    "phase": "TASK",
    "condition": "Cond2",
    "trial_num": 70,
    "trial_length": 7,
    "click_num": 7,
    "RT": 774,
    "action": 0,
    "reward": -2
  },
  {
    "phase": "TASK",
    "condition": "Cond2",
    "trial_num": 71,
    "trial_length": 9,
    "click_num": 1,
    "RT": 1323,
    "action": 1,
    "reward": -3.9
  },
  {
    "phase": "TASK",
    "condition": "Cond2",
    "trial_num": 71,
    "trial_length": 9,
    "click_num": 2,
    "RT": 1280,
    "action": 1,
    "reward": -3.3
  },
  {
    "phase": "TASK",
    "condition": "Cond2",
    "trial_num": 71,
    "trial_length": 9,
    "click_num": 3,
    "RT": 1735,
    "action": 1,
    "reward": -3.5
  },
  {
    "phase": "TASK",
    "condition": "Cond2",
    "trial_num": 71,
    "trial_length": 9,
    "click_num": 4,
    "RT": 1401,
    "action": 1,
    "reward": -2.6
  },
  {
    "phase": "TASK",
    "condition": "Cond2",
    "trial_num": 71,
    "trial_length": 9,
    "click_num": 5,
    "RT": 1431,
    "action": 0,
    "reward": -2.6
  },
  {
    "phase": "TASK",
    "condition": "Cond2",
    "trial_num": 71,
    "trial_length": 9,
    "click_num": 6,
    "RT": 848,
    "action": 0,
    "reward": -2.6
  },
  {
    "phase": "TASK",
    "condition": "Cond2",
    "trial_num": 71,
    "trial_length": 9,
    "click_num": 7,
    "RT": 857,
    "action": 0,
    "reward": -2.6
  },
  {
    "phase": "TASK",
    "condition": "Cond2",
    "trial_num": 71,
    "trial_length": 9,
    "click_num": 8,
    "RT": 913,
    "action": 1,
    "reward": -2.2
  },
  {
    "phase": "TASK",
    "condition": "Cond2",
    "trial_num": 71,
    "trial_length": 9,
    "click_num": 9,
    "RT": 1038,
    "action": 0,
    "reward": -2.2
  },
  {
    "phase": "TASK",
    "condition": "Cond2",
    "trial_num": 72,
    "trial_length": 6,
    "click_num": 1,
    "RT": 1399,
    "action": 1,
    "reward": -2.4
  },
  {
    "phase": "TASK",
    "condition": "Cond2",
    "trial_num": 72,
    "trial_length": 6,
    "click_num": 2,
    "RT": 1768,
    "action": 0,
    "reward": -2.4
  },
  {
    "phase": "TASK",
    "condition": "Cond2",
    "trial_num": 72,
    "trial_length": 6,
    "click_num": 3,
    "RT": 752,
    "action": 0,
    "reward": -2.4
  },
  {
    "phase": "TASK",
    "condition": "Cond2",
    "trial_num": 72,
    "trial_length": 6,
    "click_num": 4,
    "RT": 1010,
    "action": 1,
    "reward": -2.4
  },
  {
    "phase": "TASK",
    "condition": "Cond2",
    "trial_num": 72,
    "trial_length": 6,
    "click_num": 5,
    "RT": 1798,
    "action": 1,
    "reward": -2.8
  },
  {
    "phase": "TASK",
    "condition": "Cond2",
    "trial_num": 72,
    "trial_length": 6,
    "click_num": 6,
    "RT": 888,
    "action": 0,
    "reward": -2.4
  },
  {
    "phase": "TASK",
    "condition": "Cond2",
    "trial_num": 73,
    "trial_length": 10,
    "click_num": 1,
    "RT": 1237,
    "action": 1,
    "reward": -3.2
  },
  {
    "phase": "TASK",
    "condition": "Cond2",
    "trial_num": 73,
    "trial_length": 10,
    "click_num": 2,
    "RT": 1151,
    "action": 1,
    "reward": -3.4
  },
  {
    "phase": "TASK",
    "condition": "Cond2",
    "trial_num": 73,
    "trial_length": 10,
    "click_num": 3,
    "RT": 824,
    "action": 1,
    "reward": -2.1
  },
  {
    "phase": "TASK",
    "condition": "Cond2",
    "trial_num": 73,
    "trial_length": 10,
    "click_num": 4,
    "RT": 1832,
    "action": 0,
    "reward": -2.1
  },
  {
    "phase": "TASK",
    "condition": "Cond2",
    "trial_num": 73,
    "trial_length": 10,
    "click_num": 5,
    "RT": 696,
    "action": 0,
    "reward": -2.1
  },
  {
    "phase": "TASK",
    "condition": "Cond2",
    "trial_num": 73,
    "trial_length": 10,
    "click_num": 6,
    "RT": 1032,
    "action": 0,
    "reward": -2.1
  },
  {
    "phase": "TASK",
    "condition": "Cond2",
    "trial_num": 73,
    "trial_length": 10,
    "click_num": 7,
    "RT": 826,
    "action": 0,
    "reward": -2.1
  },
  {
    "phase": "TASK",
    "condition": "Cond2",
    "trial_num": 73,
    "trial_length": 10,
    "click_num": 8,
    "RT": 1014,
    "action": 1,
    "reward": -3.2
  },
  {
    "phase": "TASK",
    "condition": "Cond2",
    "trial_num": 73,
    "trial_length": 10,
    "click_num": 9,
    "RT": 904,
    "action": 0,
    "reward": -2.1
  },
  {
    "phase": "TASK",
    "condition": "Cond2",
    "trial_num": 73,
    "trial_length": 10,
    "click_num": 10,
    "RT": 1240,
    "action": 1,
    "reward": -3.2
  },
  {
    "phase": "TASK",
    "condition": "Cond2",
    "trial_num": 74,
    "trial_length": 8,
    "click_num": 1,
    "RT": 1324,
    "action": 1,
    "reward": -2.8
  },
  {
    "phase": "TASK",
    "condition": "Cond2",
    "trial_num": 74,
    "trial_length": 8,
    "click_num": 2,
    "RT": 1207,
    "action": 1,
    "reward": -2.6
  },
  {
    "phase": "TASK",
    "condition": "Cond2",
    "trial_num": 74,
    "trial_length": 8,
    "click_num": 3,
    "RT": 935,
    "action": 1,
    "reward": -3.2
  },
  {
    "phase": "TASK",
    "condition": "Cond2",
    "trial_num": 74,
    "trial_length": 8,
    "click_num": 4,
    "RT": 1276,
    "action": 0,
    "reward": -2.6
  },
  {
    "phase": "TASK",
    "condition": "Cond2",
    "trial_num": 74,
    "trial_length": 8,
    "click_num": 5,
    "RT": 814,
    "action": 1,
    "reward": -3.2
  },
  {
    "phase": "TASK",
    "condition": "Cond2",
    "trial_num": 74,
    "trial_length": 8,
    "click_num": 6,
    "RT": 1144,
    "action": 0,
    "reward": -2.6
  },
  {
    "phase": "TASK",
    "condition": "Cond2",
    "trial_num": 74,
    "trial_length": 8,
    "click_num": 7,
    "RT": 791,
    "action": 0,
    "reward": -2.6
  },
  {
    "phase": "TASK",
    "condition": "Cond2",
    "trial_num": 74,
    "trial_length": 8,
    "click_num": 8,
    "RT": 787,
    "action": 1,
    "reward": -2.2
  },
  {
    "phase": "TASK",
    "condition": "Cond2",
    "trial_num": 75,
    "trial_length": 8,
    "click_num": 1,
    "RT": 1206,
    "action": 1,
    "reward": -2.3
  },
  {
    "phase": "TASK",
    "condition": "Cond2",
    "trial_num": 75,
    "trial_length": 8,
    "click_num": 2,
    "RT": 1927,
    "action": 0,
    "reward": -2.3
  },
  {
    "phase": "TASK",
    "condition": "Cond2",
    "trial_num": 75,
    "trial_length": 8,
    "click_num": 3,
    "RT": 752,
    "action": 0,
    "reward": -2.3
  },
  {
    "phase": "TASK",
    "condition": "Cond2",
    "trial_num": 75,
    "trial_length": 8,
    "click_num": 4,
    "RT": 824,
    "action": 0,
    "reward": -2.3
  },
  {
    "phase": "TASK",
    "condition": "Cond2",
    "trial_num": 75,
    "trial_length": 8,
    "click_num": 5,
    "RT": 766,
    "action": 0,
    "reward": -2.3
  },
  {
    "phase": "TASK",
    "condition": "Cond2",
    "trial_num": 75,
    "trial_length": 8,
    "click_num": 6,
    "RT": 778,
    "action": 1,
    "reward": -2.3
  },
  {
    "phase": "TASK",
    "condition": "Cond2",
    "trial_num": 75,
    "trial_length": 8,
    "click_num": 7,
    "RT": 841,
    "action": 0,
    "reward": -2.3
  },
  {
    "phase": "TASK",
    "condition": "Cond2",
    "trial_num": 75,
    "trial_length": 8,
    "click_num": 8,
    "RT": 1639,
    "action": 1,
    "reward": -4.4
  },
  {
    "phase": "TASK",
    "condition": "Cond2",
    "trial_num": 76,
    "trial_length": 10,
    "click_num": 1,
    "RT": 1160,
    "action": 1,
    "reward": -2.3
  },
  {
    "phase": "TASK",
    "condition": "Cond2",
    "trial_num": 76,
    "trial_length": 10,
    "click_num": 2,
    "RT": 1781,
    "action": 0,
    "reward": -2.3
  },
  {
    "phase": "TASK",
    "condition": "Cond2",
    "trial_num": 76,
    "trial_length": 10,
    "click_num": 3,
    "RT": 1673,
    "action": 0,
    "reward": -2.3
  },
  {
    "phase": "TASK",
    "condition": "Cond2",
    "trial_num": 76,
    "trial_length": 10,
    "click_num": 4,
    "RT": 1113,
    "action": 0,
    "reward": -2.3
  },
  {
    "phase": "TASK",
    "condition": "Cond2",
    "trial_num": 76,
    "trial_length": 10,
    "click_num": 5,
    "RT": 814,
    "action": 0,
    "reward": -2.3
  },
  {
    "phase": "TASK",
    "condition": "Cond2",
    "trial_num": 76,
    "trial_length": 10,
    "click_num": 6,
    "RT": 736,
    "action": 0,
    "reward": -2.3
  },
  {
    "phase": "TASK",
    "condition": "Cond2",
    "trial_num": 76,
    "trial_length": 10,
    "click_num": 7,
    "RT": 896,
    "action": 0,
    "reward": -2.3
  },
  {
    "phase": "TASK",
    "condition": "Cond2",
    "trial_num": 76,
    "trial_length": 10,
    "click_num": 8,
    "RT": 976,
    "action": 1,
    "reward": -2.7
  },
  {
    "phase": "TASK",
    "condition": "Cond2",
    "trial_num": 76,
    "trial_length": 10,
    "click_num": 9,
    "RT": 791,
    "action": 0,
    "reward": -2.3
  },
  {
    "phase": "TASK",
    "condition": "Cond2",
    "trial_num": 76,
    "trial_length": 10,
    "click_num": 10,
    "RT": 1057,
    "action": 1,
    "reward": -3.9
  },
  {
    "phase": "TASK",
    "condition": "Cond2",
    "trial_num": 77,
    "trial_length": 10,
    "click_num": 1,
    "RT": 1334,
    "action": 1,
    "reward": -3.1
  },
  {
    "phase": "TASK",
    "condition": "Cond2",
    "trial_num": 77,
    "trial_length": 10,
    "click_num": 2,
    "RT": 1655,
    "action": 1,
    "reward": -1.8
  },
  {
    "phase": "TASK",
    "condition": "Cond2",
    "trial_num": 77,
    "trial_length": 10,
    "click_num": 3,
    "RT": 1400,
    "action": 0,
    "reward": -1.8
  },
  {
    "phase": "TASK",
    "condition": "Cond2",
    "trial_num": 77,
    "trial_length": 10,
    "click_num": 4,
    "RT": 923,
    "action": 0,
    "reward": -1.8
  },
  {
    "phase": "TASK",
    "condition": "Cond2",
    "trial_num": 77,
    "trial_length": 10,
    "click_num": 5,
    "RT": 1558,
    "action": 0,
    "reward": -1.8
  },
  {
    "phase": "TASK",
    "condition": "Cond2",
    "trial_num": 77,
    "trial_length": 10,
    "click_num": 6,
    "RT": 1232,
    "action": 0,
    "reward": -1.8
  },
  {
    "phase": "TASK",
    "condition": "Cond2",
    "trial_num": 77,
    "trial_length": 10,
    "click_num": 7,
    "RT": 1312,
    "action": 0,
    "reward": -1.8
  },
  {
    "phase": "TASK",
    "condition": "Cond2",
    "trial_num": 77,
    "trial_length": 10,
    "click_num": 8,
    "RT": 1096,
    "action": 0,
    "reward": -1.8
  },
  {
    "phase": "TASK",
    "condition": "Cond2",
    "trial_num": 77,
    "trial_length": 10,
    "click_num": 9,
    "RT": 912,
    "action": 0,
    "reward": -1.8
  },
  {
    "phase": "TASK",
    "condition": "Cond2",
    "trial_num": 77,
