[
  {
    "phase": "TASK",
    "condition": "Cond2",
    "trial_num": 1,
    "trial_length": 6,
    "click_num": 1,
    "RT": 5399,
    "action": 1,
    "reward": -3
  },
  {
    "phase": "TASK",
    "condition": "Cond2",
    "trial_num": 1,
    "trial_length": 6,
    "click_num": 2,
    "RT": 4965,
    "action": 1,
    "reward": -2.9
  },
  {
    "phase": "TASK",
    "condition": "Cond2",
    "trial_num": 1,
    "trial_length": 6,
    "click_num": 3,
    "RT": 4960,
    "action": 1,
    "reward": -4
  },
  {
    "phase": "TASK",
    "condition": "Cond2",
    "trial_num": 1,
    "trial_length": 6,
    "click_num": 4,
    "RT": 8008,
    "action": 1,
    "reward": -2.6
  },
  {
    "phase": "TASK",
    "condition": "Cond2",
    "trial_num": 1,
    "trial_length": 6,
    "click_num": 5,
    "RT": 6152,
    "action": 1,
    "reward": -3.3
  },
  {
    "phase": "TASK",
    "condition": "Cond2",
    "trial_num": 1,
    "trial_length": 6,
    "click_num": 6,
    "RT": 3905,
    "action": 1,
    "reward": -2.8
  },
  {
    "phase": "TASK",
    "condition": "Cond2",
    "trial_num": 2,
    "trial_length": 10,
    "click_num": 1,
    "RT": 3725,
    "action": 1,
    "reward": -3.3
  },
  {
    "phase": "TASK",
    "condition": "Cond2",
    "trial_num": 2,
    "trial_length": 10,
    "click_num": 2,
    "RT": 2184,
    "action": 1,
    "reward": -2.8
  },
  {
    "phase": "TASK",
    "condition": "Cond2",
    "trial_num": 2,
    "trial_length": 10,
    "click_num": 3,
    "RT": 1895,
    "action": 1,
    "reward": -3.8
  },
  {
    "phase": "TASK",
    "condition": "Cond2",
    "trial_num": 2,
    "trial_length": 10,
    "click_num": 4,
    "RT": 1969,
    "action": 1,
    "reward": -2.3
  },
  {
    "phase": "TASK",
    "condition": "Cond2",
    "trial_num": 2,
    "trial_length": 10,
    "click_num": 5,
    "RT": 2128,
    "action": 0,
    "reward": -2.3
  },
  {
    "phase": "TASK",
    "condition": "Cond2",
    "trial_num": 2,
    "trial_length": 10,
    "click_num": 6,
    "RT": 18505,
    "action": 1,
    "reward": -2.5
  },
  {
    "phase": "TASK",
    "condition": "Cond2",
    "trial_num": 2,
    "trial_length": 10,
    "click_num": 7,
    "RT": 2823,
    "action": 0,
    "reward": -2.3
  },
  {
    "phase": "TASK",
    "condition": "Cond2",
    "trial_num": 2,
    "trial_length": 10,
    "click_num": 8,
    "RT": 2568,
    "action": 0,
    "reward": -2.3
  },
  {
    "phase": "TASK",
    "condition": "Cond2",
    "trial_num": 2,
    "trial_length": 10,
    "click_num": 9,
    "RT": 2583,
    "action": 0,
    "reward": -2.3
  },
  {
    "phase": "TASK",
    "condition": "Cond2",
    "trial_num": 2,
    "trial_length": 10,
    "click_num": 10,
    "RT": 2208,
    "action": 0,
    "reward": -2.3
  },
  {
    "phase": "TASK",
    "condition": "Cond2",
    "trial_num": 3,
    "trial_length": 5,
    "click_num": 1,
    "RT": 3188,
    "action": 1,
    "reward": -3.8
  },
  {
    "phase": "TASK",
    "condition": "Cond2",
    "trial_num": 3,
    "trial_length": 5,
    "click_num": 2,
    "RT": 4513,
    "action": 1,
    "reward": -2.2
  },
  {
    "phase": "TASK",
    "condition": "Cond2",
    "trial_num": 3,
    "trial_length": 5,
    "click_num": 3,
    "RT": 4367,
    "action": 1,
    "reward": -2.2
  },
  {
    "phase": "TASK",
    "condition": "Cond2",
    "trial_num": 3,
    "trial_length": 5,
    "click_num": 4,
    "RT": 2280,
    "action": 1,
    "reward": -2.8
  },
  {
    "phase": "TASK",
    "condition": "Cond2",
    "trial_num": 3,
    "trial_length": 5,
    "click_num": 5,
    "RT": 2423,
    "action": 0,
    "reward": -2.2
  },
  {
    "phase": "TASK",
    "condition": "Cond2",
    "trial_num": 4,
    "trial_length": 7,
    "click_num": 1,
    "RT": 1800,
    "action": 1,
    "reward": -3.7
  },
  {
    "phase": "TASK",
    "condition": "Cond2",
    "trial_num": 4,
    "trial_length": 7,
    "click_num": 2,
    "RT": 2072,
    "action": 1,
    "reward": -3.2
  },
  {
    "phase": "TASK",
    "condition": "Cond2",
    "trial_num": 4,
    "trial_length": 7,
    "click_num": 3,
    "RT": 1463,
    "action": 1,
    "reward": -3.6
  },
  {
    "phase": "TASK",
    "condition": "Cond2",
    "trial_num": 4,
    "trial_length": 7,
    "click_num": 4,
    "RT": 1848,
    "action": 1,
    "reward": -3.3
  },
  {
    "phase": "TASK",
    "condition": "Cond2",
    "trial_num": 4,
    "trial_length": 7,
    "click_num": 5,
    "RT": 1425,
    "action": 1,
    "reward": -3.5
  },
  {
    "phase": "TASK",
    "condition": "Cond2",
    "trial_num": 4,
    "trial_length": 7,
    "click_num": 6,
    "RT": 2071,
    "action": 1,
    "reward": -2.5
  },
  {
    "phase": "TASK",
    "condition": "Cond2",
    "trial_num": 4,
    "trial_length": 7,
    "click_num": 7,
    "RT": 2049,
    "action": 0,
    "reward": -2.5
  },
  {
    "phase": "TASK",
    "condition": "Cond2",
    "trial_num": 5,
    "trial_length": 8,
    "click_num": 1,
    "RT": 4073,
    "action": 1,
    "reward": -2.9
  },
  {
    "phase": "TASK",
    "condition": "Cond2",
    "trial_num": 5,
    "trial_length": 8,
    "click_num": 2,
    "RT": 2079,
    "action": 1,
    "reward": -2.7
  },
  {
    "phase": "TASK",
    "condition": "Cond2",
    "trial_num": 5,
    "trial_length": 8,
    "click_num": 3,
    "RT": 1640,
    "action": 1,
    "reward": -3.6
  },
  {
    "phase": "TASK",
    "condition": "Cond2",
    "trial_num": 5,
    "trial_length": 8,
    "click_num": 4,
    "RT": 1752,
    "action": 1,
    "reward": -3.1
  },
  {
    "phase": "TASK",
    "condition": "Cond2",
    "trial_num": 5,
    "trial_length": 8,
    "click_num": 5,
    "RT": 1450,
    "action": 1,
    "reward": -4.1
  },
  {
    "phase": "TASK",
    "condition": "Cond2",
    "trial_num": 5,
    "trial_length": 8,
    "click_num": 6,
    "RT": 1470,
    "action": 1,
    "reward": -4.1
  },
  {
    "phase": "TASK",
    "condition": "Cond2",
    "trial_num": 5,
    "trial_length": 8,
    "click_num": 7,
    "RT": 1880,
    "action": 0,
    "reward": -2.7
  },
  {
    "phase": "TASK",
    "condition": "Cond2",
    "trial_num": 5,
    "trial_length": 8,
    "click_num": 8,
    "RT": 1593,
    "action": 0,
    "reward": -2.7
  },
  {
    "phase": "TASK",
    "condition": "Cond2",
    "trial_num": 6,
    "trial_length": 10,
    "click_num": 1,
    "RT": 1381,
    "action": 1,
    "reward": -2.5
  },
  {
    "phase": "TASK",
    "condition": "Cond2",
    "trial_num": 6,
    "trial_length": 10,
    "click_num": 2,
    "RT": 1899,
    "action": 1,
    "reward": -2.5
  },
  {
    "phase": "TASK",
    "condition": "Cond2",
    "trial_num": 6,
    "trial_length": 10,
    "click_num": 3,
    "RT": 1709,
    "action": 1,
    "reward": -3.3
  },
  {
    "phase": "TASK",
    "condition": "Cond2",
    "trial_num": 6,
    "trial_length": 10,
    "click_num": 4,
    "RT": 1736,
    "action": 1,
    "reward": -2.2
  },
  {
    "phase": "TASK",
    "condition": "Cond2",
    "trial_num": 6,
    "trial_length": 10,
    "click_num": 5,
    "RT": 1419,
    "action": 1,
    "reward": -2.5
  },
  {
    "phase": "TASK",
    "condition": "Cond2",
    "trial_num": 6,
    "trial_length": 10,
    "click_num": 6,
    "RT": 2077,
    "action": 0,
    "reward": -2.2
  },
  {
    "phase": "TASK",
    "condition": "Cond2",
    "trial_num": 6,
    "trial_length": 10,
    "click_num": 7,
    "RT": 1201,
    "action": 1,
    "reward": -3.6
  },
  {
    "phase": "TASK",
    "condition": "Cond2",
    "trial_num": 6,
    "trial_length": 10,
    "click_num": 8,
    "RT": 1490,
    "action": 0,
    "reward": -2.2
  },
  {
    "phase": "TASK",
    "condition": "Cond2",
    "trial_num": 6,
    "trial_length": 10,
    "click_num": 9,
    "RT": 1597,
    "action": 0,
    "reward": -2.2
  },
  {
    "phase": "TASK",
    "condition": "Cond2",
    "trial_num": 6,
    "trial_length": 10,
    "click_num": 10,
    "RT": 1207,
    "action": 0,
    "reward": -2.2
  },
  {
    "phase": "TASK",
    "condition": "Cond2",
    "trial_num": 7,
    "trial_length": 10,
    "click_num": 1,
    "RT": 1676,
    "action": 1,
    "reward": -3.5
  },
  {
    "phase": "TASK",
    "condition": "Cond2",
    "trial_num": 7,
    "trial_length": 10,
    "click_num": 2,
    "RT": 1584,
    "action": 1,
    "reward": -2.7
  },
  {
    "phase": "TASK",
    "condition": "Cond2",
    "trial_num": 7,
    "trial_length": 10,
    "click_num": 3,
    "RT": 1426,
    "action": 1,
    "reward": -3.1
  },
  {
    "phase": "TASK",
    "condition": "Cond2",
    "trial_num": 7,
    "trial_length": 10,
    "click_num": 4,
    "RT": 1711,
    "action": 1,
    "reward": -2.7
  },
  {
    "phase": "TASK",
    "condition": "Cond2",
    "trial_num": 7,
    "trial_length": 10,
    "click_num": 5,
    "RT": 2995,
    "action": 1,
    "reward": -3.8
  },
  {
    "phase": "TASK",
    "condition": "Cond2",
    "trial_num": 7,
    "trial_length": 10,
    "click_num": 6,
    "RT": 3509,
    "action": 1,
    "reward": -2.6
  },
  {
    "phase": "TASK",
    "condition": "Cond2",
    "trial_num": 7,
    "trial_length": 10,
    "click_num": 7,
    "RT": 2912,
    "action": 1,
    "reward": -3.1
  },
  {
    "phase": "TASK",
    "condition": "Cond2",
    "trial_num": 7,
    "trial_length": 10,
    "click_num": 8,
    "RT": 2119,
    "action": 0,
    "reward": -2.6
  },
  {
    "phase": "TASK",
    "condition": "Cond2",
    "trial_num": 7,
    "trial_length": 10,
    "click_num": 9,
    "RT": 1448,
    "action": 0,
    "reward": -2.6
  },
  {
    "phase": "TASK",
    "condition": "Cond2",
    "trial_num": 7,
    "trial_length": 10,
    "click_num": 10,
    "RT": 1200,
    "action": 0,
    "reward": -2.6
  },
  {
    "phase": "TASK",
    "condition": "Cond2",
    "trial_num": 8,
    "trial_length": 7,
    "click_num": 1,
    "RT": 1733,
    "action": 1,
    "reward": -3.5
  },
  {
    "phase": "TASK",
    "condition": "Cond2",
    "trial_num": 8,
    "trial_length": 7,
    "click_num": 2,
    "RT": 1808,
    "action": 1,
    "reward": -2.6
  },
  {
    "phase": "TASK",
    "condition": "Cond2",
    "trial_num": 8,
    "trial_length": 7,
    "click_num": 3,
    "RT": 1600,
    "action": 1,
    "reward": -2.4
  },
  {
    "phase": "TASK",
    "condition": "Cond2",
    "trial_num": 8,
    "trial_length": 7,
    "click_num": 4,
    "RT": 1696,
    "action": 1,
    "reward": -3.9
  },
  {
    "phase": "TASK",
    "condition": "Cond2",
    "trial_num": 8,
    "trial_length": 7,
    "click_num": 5,
    "RT": 2352,
    "action": 0,
    "reward": -2.4
  },
  {
    "phase": "TASK",
    "condition": "Cond2",
    "trial_num": 8,
    "trial_length": 7,
    "click_num": 6,
    "RT": 1520,
    "action": 0,
    "reward": -2.4
  },
  {
    "phase": "TASK",
    "condition": "Cond2",
    "trial_num": 8,
    "trial_length": 7,
    "click_num": 7,
    "RT": 1215,
    "action": 1,
    "reward": -2.7
  },
  {
    "phase": "TASK",
    "condition": "Cond2",
    "trial_num": 9,
    "trial_length": 5,
    "click_num": 1,
    "RT": 1495,
    "action": 1,
    "reward": -2.9
  },
  {
    "phase": "TASK",
    "condition": "Cond2",
    "trial_num": 9,
    "trial_length": 5,
    "click_num": 2,
    "RT": 1656,
    "action": 1,
    "reward": -3.2
  },
  {
    "phase": "TASK",
    "condition": "Cond2",
    "trial_num": 9,
    "trial_length": 5,
    "click_num": 3,
    "RT": 1232,
    "action": 1,
    "reward": -3.5
  },
  {
    "phase": "TASK",
    "condition": "Cond2",
    "trial_num": 9,
    "trial_length": 5,
    "click_num": 4,
    "RT": 1432,
    "action": 1,
    "reward": -3.4
  },
  {
    "phase": "TASK",
    "condition": "Cond2",
    "trial_num": 9,
    "trial_length": 5,
    "click_num": 5,
    "RT": 1522,
    "action": 0,
    "reward": -2.9
  },
  {
    "phase": "TASK",
    "condition": "Cond2",
    "trial_num": 10,
    "trial_length": 9,
    "click_num": 1,
    "RT": 1282,
    "action": 1,
    "reward": -3.1
  },
  {
    "phase": "TASK",
    "condition": "Cond2",
    "trial_num": 10,
    "trial_length": 9,
    "click_num": 2,
    "RT": 1248,
    "action": 1,
    "reward": -3.5
  },
  {
    "phase": "TASK",
    "condition": "Cond2",
    "trial_num": 10,
    "trial_length": 9,
    "click_num": 3,
    "RT": 999,
    "action": 1,
    "reward": -3.5
  },
  {
    "phase": "TASK",
    "condition": "Cond2",
    "trial_num": 10,
    "trial_length": 9,
    "click_num": 4,
    "RT": 1034,
    "action": 1,
    "reward": -2.4
  },
  {
    "phase": "TASK",
    "condition": "Cond2",
    "trial_num": 10,
    "trial_length": 9,
    "click_num": 5,
    "RT": 1157,
    "action": 1,
    "reward": -3.6
  },
  {
    "phase": "TASK",
    "condition": "Cond2",
    "trial_num": 10,
    "trial_length": 9,
    "click_num": 6,
    "RT": 2641,
    "action": 0,
    "reward": -2.4
  },
  {
    "phase": "TASK",
    "condition": "Cond2",
    "trial_num": 10,
    "trial_length": 9,
    "click_num": 7,
    "RT": 1060,
    "action": 1,
    "reward": -3.9
  },
  {
    "phase": "TASK",
    "condition": "Cond2",
    "trial_num": 10,
    "trial_length": 9,
    "click_num": 8,
    "RT": 1485,
    "action": 0,
    "reward": -2.4
  },
  {
    "phase": "TASK",
    "condition": "Cond2",
    "trial_num": 10,
    "trial_length": 9,
    "click_num": 9,
    "RT": 1503,
    "action": 1,
    "reward": -2.8
  },
  {
    "phase": "TASK",
    "condition": "Cond2",
    "trial_num": 11,
    "trial_length": 8,
    "click_num": 1,
    "RT": 1462,
    "action": 1,
    "reward": -4
  },
  {
    "phase": "TASK",
    "condition": "Cond2",
    "trial_num": 11,
    "trial_length": 8,
    "click_num": 2,
    "RT": 2440,
    "action": 1,
    "reward": -3
  },
  {
    "phase": "TASK",
    "condition": "Cond2",
    "trial_num": 11,
    "trial_length": 8,
    "click_num": 3,
    "RT": 1831,
    "action": 1,
    "reward": -3.7
  },
  {
    "phase": "TASK",
    "condition": "Cond2",
    "trial_num": 11,
    "trial_length": 8,
    "click_num": 4,
    "RT": 1249,
    "action": 1,
    "reward": -3.2
  },
  {
    "phase": "TASK",
    "condition": "Cond2",
    "trial_num": 11,
    "trial_length": 8,
    "click_num": 5,
    "RT": 1223,
    "action": 1,
    "reward": -3.4
  },
  {
    "phase": "TASK",
    "condition": "Cond2",
    "trial_num": 11,
    "trial_length": 8,
    "click_num": 6,
    "RT": 1232,
    "action": 1,
    "reward": -3.5
  },
  {
    "phase": "TASK",
    "condition": "Cond2",
    "trial_num": 11,
    "trial_length": 8,
    "click_num": 7,
    "RT": 1536,
    "action": 1,
    "reward": -2.9
  },
  {
    "phase": "TASK",
    "condition": "Cond2",
    "trial_num": 11,
    "trial_length": 8,
    "click_num": 8,
    "RT": 1560,
    "action": 1,
    "reward": -3.6
  },
  {
    "phase": "TASK",
    "condition": "Cond2",
    "trial_num": 12,
    "trial_length": 7,
    "click_num": 1,
    "RT": 1510,
    "action": 1,
    "reward": -4.2
  },
  {
    "phase": "TASK",
    "condition": "Cond2",
    "trial_num": 12,
    "trial_length": 7,
    "click_num": 2,
    "RT": 1168,
    "action": 1,
    "reward": -3
  },
  {
    "phase": "TASK",
    "condition": "Cond2",
    "trial_num": 12,
    "trial_length": 7,
    "click_num": 3,
    "RT": 1311,
    "action": 1,
    "reward": -2.8
  },
  {
    "phase": "TASK",
    "condition": "Cond2",
    "trial_num": 12,
    "trial_length": 7,
    "click_num": 4,
    "RT": 1614,
    "action": 1,
    "reward": -3.8
  },
  {
    "phase": "TASK",
    "condition": "Cond2",
    "trial_num": 12,
    "trial_length": 7,
    "click_num": 5,
    "RT": 1307,
    "action": 1,
    "reward": -2.4
  },
  {
    "phase": "TASK",
    "condition": "Cond2",
    "trial_num": 12,
    "trial_length": 7,
    "click_num": 6,
    "RT": 2719,
    "action": 0,
    "reward": -2.4
  },
  {
    "phase": "TASK",
    "condition": "Cond2",
    "trial_num": 12,
    "trial_length": 7,
    "click_num": 7,
    "RT": 2601,
    "action": 0,
    "reward": -2.4
  },
  {
    "phase": "TASK",
    "condition": "Cond2",
    "trial_num": 13,
    "trial_length": 5,
    "click_num": 1,
    "RT": 1359,
    "action": 1,
    "reward": -3.3
  },
  {
    "phase": "TASK",
    "condition": "Cond2",
    "trial_num": 13,
    "trial_length": 5,
    "click_num": 2,
    "RT": 1391,
    "action": 1,
    "reward": -2.8
  },
  {
    "phase": "TASK",
    "condition": "Cond2",
    "trial_num": 13,
    "trial_length": 5,
    "click_num": 3,
    "RT": 1456,
    "action": 1,
    "reward": -2.5
  },
  {
    "phase": "TASK",
    "condition": "Cond2",
    "trial_num": 13,
    "trial_length": 5,
    "click_num": 4,
    "RT": 1568,
    "action": 1,
    "reward": -1.7
  },
  {
    "phase": "TASK",
    "condition": "Cond2",
    "trial_num": 13,
    "trial_length": 5,
    "click_num": 5,
    "RT": 2912,
    "action": 0,
    "reward": -1.7
  },
  {
    "phase": "TASK",
    "condition": "Cond2",
    "trial_num": 14,
    "trial_length": 7,
    "click_num": 1,
    "RT": 1302,
    "action": 1,
    "reward": -2.1
  },
  {
    "phase": "TASK",
    "condition": "Cond2",
    "trial_num": 14,
    "trial_length": 7,
    "click_num": 2,
    "RT": 1697,
    "action": 1,
    "reward": -2.5
  },
  {
    "phase": "TASK",
    "condition": "Cond2",
    "trial_num": 14,
    "trial_length": 7,
    "click_num": 3,
    "RT": 2432,
    "action": 1,
    "reward": -3.6
  },
  {
    "phase": "TASK",
    "condition": "Cond2",
    "trial_num": 14,
    "trial_length": 7,
    "click_num": 4,
    "RT": 1824,
    "action": 0,
    "reward": -2.1
  },
  {
    "phase": "TASK",
    "condition": "Cond2",
    "trial_num": 14,
    "trial_length": 7,
    "click_num": 5,
    "RT": 1144,
    "action": 1,
    "reward": -3.4
  },
  {
    "phase": "TASK",
    "condition": "Cond2",
    "trial_num": 14,
    "trial_length": 7,
    "click_num": 6,
    "RT": 1040,
    "action": 0,
    "reward": -2.1
  },
  {
    "phase": "TASK",
    "condition": "Cond2",
    "trial_num": 14,
    "trial_length": 7,
    "click_num": 7,
    "RT": 1704,
    "action": 1,
    "reward": -3
  },
  {
    "phase": "TASK",
    "condition": "Cond2",
    "trial_num": 15,
    "trial_length": 6,
    "click_num": 1,
    "RT": 1296,
    "action": 1,
    "reward": -2.7
  },
  {
    "phase": "TASK",
    "condition": "Cond2",
    "trial_num": 15,
    "trial_length": 6,
    "click_num": 2,
    "RT": 1591,
    "action": 1,
    "reward": -1.5
  },
  {
    "phase": "TASK",
    "condition": "Cond2",
    "trial_num": 15,
    "trial_length": 6,
    "click_num": 3,
    "RT": 1449,
    "action": 0,
    "reward": -1.5
  },
  {
    "phase": "TASK",
    "condition": "Cond2",
    "trial_num": 15,
    "trial_length": 6,
    "click_num": 4,
    "RT": 1543,
    "action": 0,
    "reward": -1.5
  },
  {
    "phase": "TASK",
    "condition": "Cond2",
    "trial_num": 15,
    "trial_length": 6,
    "click_num": 5,
    "RT": 1807,
    "action": 0,
    "reward": -1.5
  },
  {
    "phase": "TASK",
    "condition": "Cond2",
    "trial_num": 15,
    "trial_length": 6,
    "click_num": 6,
    "RT": 1313,
    "action": 0,
    "reward": -1.5
  },
  {
    "phase": "TASK",
    "condition": "Cond2",
    "trial_num": 16,
    "trial_length": 8,
    "click_num": 1,
    "RT": 1925,
    "action": 1,
    "reward": -3.8
  },
  {
    "phase": "TASK",
    "condition": "Cond2",
    "trial_num": 16,
    "trial_length": 8,
    "click_num": 2,
    "RT": 1471,
    "action": 1,
    "reward": -3.1
  },
  {
    "phase": "TASK",
    "condition": "Cond2",
    "trial_num": 16,
    "trial_length": 8,
    "click_num": 3,
    "RT": 1177,
    "action": 1,
    "reward": -2.4
  },
  {
    "phase": "TASK",
    "condition": "Cond2",
    "trial_num": 16,
    "trial_length": 8,
    "click_num": 4,
    "RT": 1165,
    "action": 1,
    "reward": -3.8
  },
  {
    "phase": "TASK",
    "condition": "Cond2",
    "trial_num": 16,
    "trial_length": 8,
    "click_num": 5,
    "RT": 1186,
    "action": 1,
    "reward": -3.2
  },
  {
    "phase": "TASK",
    "condition": "Cond2",
    "trial_num": 16,
    "trial_length": 8,
    "click_num": 6,
    "RT": 1217,
    "action": 1,
    "reward": -3.7
  },
  {
    "phase": "TASK",
    "condition": "Cond2",
    "trial_num": 16,
    "trial_length": 8,
    "click_num": 7,
    "RT": 992,
    "action": 1,
    "reward": -1.8
  },
  {
    "phase": "TASK",
    "condition": "Cond2",
    "trial_num": 16,
    "trial_length": 8,
    "click_num": 8,
    "RT": 2039,
    "action": 0,
    "reward": -1.8
  },
  {
    "phase": "TASK",
    "condition": "Cond2",
    "trial_num": 17,
    "trial_length": 6,
    "click_num": 1,
    "RT": 1488,
    "action": 1,
    "reward": -2.7
  },
  {
    "phase": "TASK",
    "condition": "Cond2",
    "trial_num": 17,
    "trial_length": 6,
    "click_num": 2,
    "RT": 2519,
    "action": 1,
    "reward": -2.9
  },
  {
    "phase": "TASK",
    "condition": "Cond2",
    "trial_num": 17,
    "trial_length": 6,
    "click_num": 3,
    "RT": 1856,
    "action": 1,
    "reward": -3.4
  },
  {
    "phase": "TASK",
    "condition": "Cond2",
    "trial_num": 17,
    "trial_length": 6,
    "click_num": 4,
    "RT": 1272,
    "action": 1,
    "reward": -2.3
  },
  {
    "phase": "TASK",
    "condition": "Cond2",
    "trial_num": 17,
    "trial_length": 6,
    "click_num": 5,
    "RT": 1184,
    "action": 1,
    "reward": -4
  },
  {
    "phase": "TASK",
    "condition": "Cond2",
    "trial_num": 17,
    "trial_length": 6,
    "click_num": 6,
    "RT": 2248,
    "action": 0,
    "reward": -2.3
  },
  {
    "phase": "TASK",
    "condition": "Cond2",
    "trial_num": 18,
    "trial_length": 10,
    "click_num": 1,
    "RT": 1640,
    "action": 1,
    "reward": -2.4
  },
  {
    "phase": "TASK",
    "condition": "Cond2",
    "trial_num": 18,
    "trial_length": 10,
    "click_num": 2,
    "RT": 1344,
    "action": 1,
    "reward": -3.2
  },
  {
    "phase": "TASK",
    "condition": "Cond2",
    "trial_num": 18,
    "trial_length": 10,
    "click_num": 3,
    "RT": 1104,
    "action": 1,
    "reward": -1.6
  },
  {
    "phase": "TASK",
    "condition": "Cond2",
    "trial_num": 18,
    "trial_length": 10,
    "click_num": 4,
    "RT": 1280,
    "action": 1,
    "reward": -1.8
  },
  {
    "phase": "TASK",
    "condition": "Cond2",
    "trial_num": 18,
    "trial_length": 10,
    "click_num": 5,
    "RT": 1224,
    "action": 1,
    "reward": -3.2
  },
  {
    "phase": "TASK",
    "condition": "Cond2",
    "trial_num": 18,
    "trial_length": 10,
    "click_num": 6,
    "RT": 1487,
    "action": 0,
    "reward": -1.6
  },
  {
    "phase": "TASK",
    "condition": "Cond2",
    "trial_num": 18,
    "trial_length": 10,
    "click_num": 7,
    "RT": 1032,
    "action": 1,
    "reward": -3
  },
  {
    "phase": "TASK",
    "condition": "Cond2",
    "trial_num": 18,
    "trial_length": 10,
    "click_num": 8,
    "RT": 1537,
    "action": 0,
    "reward": -1.6
  },
  {
    "phase": "TASK",
    "condition": "Cond2",
    "trial_num": 18,
    "trial_length": 10,
    "click_num": 9,
    "RT": 1593,
    "action": 0,
    "reward": -1.6
  },
  {
    "phase": "TASK",
    "condition": "Cond2",
    "trial_num": 18,
    "trial_length": 10,
    "click_num": 10,
    "RT": 1199,
    "action": 0,
    "reward": -1.6
  },
  {
    "phase": "TASK",
    "condition": "Cond2",
    "trial_num": 19,
    "trial_length": 9,
    "click_num": 1,
    "RT": 1369,
    "action": 1,
    "reward": -2.4
  },
  {
    "phase": "TASK",
    "condition": "Cond2",
    "trial_num": 19,
    "trial_length": 9,
    "click_num": 2,
    "RT": 1389,
    "action": 1,
    "reward": -3.2
  },
  {
    "phase": "TASK",
    "condition": "Cond2",
    "trial_num": 19,
    "trial_length": 9,
    "click_num": 3,
    "RT": 1216,
    "action": 1,
    "reward": -2.5
  },
  {
    "phase": "TASK",
    "condition": "Cond2",
    "trial_num": 19,
    "trial_length": 9,
    "click_num": 4,
    "RT": 1999,
    "action": 1,
    "reward": -3.3
  },
  {
    "phase": "TASK",
    "condition": "Cond2",
    "trial_num": 19,
    "trial_length": 9,
    "click_num": 5,
    "RT": 1288,
    "action": 1,
    "reward": -3.2
  },
  {
    "phase": "TASK",
    "condition": "Cond2",
    "trial_num": 19,
    "trial_length": 9,
    "click_num": 6,
    "RT": 1089,
    "action": 0,
    "reward": -2.4
  },
  {
    "phase": "TASK",
    "condition": "Cond2",
    "trial_num": 19,
    "trial_length": 9,
    "click_num": 7,
    "RT": 944,
    "action": 1,
    "reward": -4.2
  },
  {
    "phase": "TASK",
    "condition": "Cond2",
    "trial_num": 19,
    "trial_length": 9,
    "click_num": 8,
    "RT": 1759,
    "action": 0,
    "reward": -2.4
  },
  {
    "phase": "TASK",
    "condition": "Cond2",
    "trial_num": 19,
    "trial_length": 9,
    "click_num": 9,
    "RT": 1356,
    "action": 0,
    "reward": -2.4
  },
  {
    "phase": "TASK",
    "condition": "Cond2",
    "trial_num": 20,
    "trial_length": 8,
    "click_num": 1,
    "RT": 1237,
    "action": 1,
    "reward": -2.2
  },
  {
    "phase": "TASK",
    "condition": "Cond2",
    "trial_num": 20,
    "trial_length": 8,
    "click_num": 2,
    "RT": 1170,
    "action": 1,
    "reward": -3.5
  },
  {
    "phase": "TASK",
    "condition": "Cond2",
    "trial_num": 20,
    "trial_length": 8,
    "click_num": 3,
    "RT": 1119,
    "action": 1,
    "reward": -3.7
  },
  {
    "phase": "TASK",
    "condition": "Cond2",
    "trial_num": 20,
    "trial_length": 8,
    "click_num": 4,
    "RT": 1088,
    "action": 1,
    "reward": -2.1
  },
  {
    "phase": "TASK",
    "condition": "Cond2",
    "trial_num": 20,
    "trial_length": 8,
    "click_num": 5,
    "RT": 1519,
    "action": 1,
    "reward": -2.7
  },
  {
    "phase": "TASK",
    "condition": "Cond2",
    "trial_num": 20,
    "trial_length": 8,
    "click_num": 6,
    "RT": 1072,
    "action": 1,
    "reward": -3.8
  },
  {
    "phase": "TASK",
    "condition": "Cond2",
    "trial_num": 20,
    "trial_length": 8,
    "click_num": 7,
    "RT": 2192,
    "action": 1,
    "reward": -2.5
  },
  {
    "phase": "TASK",
    "condition": "Cond2",
    "trial_num": 20,
    "trial_length": 8,
    "click_num": 8,
    "RT": 1807,
    "action": 0,
    "reward": -2.1
  },
  {
    "phase": "TASK",
    "condition": "Cond2",
    "trial_num": 21,
    "trial_length": 10,
    "click_num": 1,
    "RT": 1383,
    "action": 1,
    "reward": -2.3
  },
  {
    "phase": "TASK",
    "condition": "Cond2",
    "trial_num": 21,
    "trial_length": 10,
    "click_num": 2,
    "RT": 1031,
    "action": 1,
    "reward": -2.6
  },
  {
    "phase": "TASK",
    "condition": "Cond2",
    "trial_num": 21,
    "trial_length": 10,
    "click_num": 3,
    "RT": 1024,
    "action": 1,
    "reward": -3
  },
  {
    "phase": "TASK",
    "condition": "Cond2",
    "trial_num": 21,
    "trial_length": 10,
    "click_num": 4,
    "RT": 888,
    "action": 1,
    "reward": -3.2
  },
  {
    "phase": "TASK",
    "condition": "Cond2",
    "trial_num": 21,
    "trial_length": 10,
    "click_num": 5,
    "RT": 1059,
    "action": 1,
    "reward": -4.1
  },
  {
    "phase": "TASK",
    "condition": "Cond2",
    "trial_num": 21,
    "trial_length": 10,
    "click_num": 6,
    "RT": 942,
    "action": 1,
    "reward": -2.9
  },
  {
    "phase": "TASK",
    "condition": "Cond2",
    "trial_num": 21,
    "trial_length": 10,
    "click_num": 7,
    "RT": 1431,
    "action": 1,
    "reward": -2.7
  },
  {
    "phase": "TASK",
    "condition": "Cond2",
    "trial_num": 21,
    "trial_length": 10,
    "click_num": 8,
    "RT": 1361,
    "action": 1,
    "reward": -2.6
  },
  {
    "phase": "TASK",
    "condition": "Cond2",
    "trial_num": 21,
    "trial_length": 10,
    "click_num": 9,
    "RT": 1560,
    "action": 1,
    "reward": -1.7
  },
  {
    "phase": "TASK",
    "condition": "Cond2",
    "trial_num": 21,
    "trial_length": 10,
    "click_num": 10,
    "RT": 1895,
    "action": 0,
    "reward": -1.7
  },
  {
    "phase": "TASK",
    "condition": "Cond2",
    "trial_num": 22,
    "trial_length": 8,
    "click_num": 1,
    "RT": 2103,
    "action": 1,
    "reward": -3.1
  },
  {
    "phase": "TASK",
    "condition": "Cond2",
    "trial_num": 22,
    "trial_length": 8,
    "click_num": 2,
    "RT": 1039,
    "action": 1,
    "reward": -3.6
  },
  {
    "phase": "TASK",
    "condition": "Cond2",
    "trial_num": 22,
    "trial_length": 8,
    "click_num": 3,
    "RT": 1184,
    "action": 1,
    "reward": -3.7
  },
  {
    "phase": "TASK",
    "condition": "Cond2",
    "trial_num": 22,
    "trial_length": 8,
    "click_num": 4,
    "RT": 1176,
    "action": 1,
    "reward": -2.5
  },
  {
    "phase": "TASK",
    "condition": "Cond2",
    "trial_num": 22,
    "trial_length": 8,
    "click_num": 5,
    "RT": 1272,
    "action": 1,
    "reward": -3.3
  },
  {
    "phase": "TASK",
    "condition": "Cond2",
    "trial_num": 22,
    "trial_length": 8,
    "click_num": 6,
    "RT": 1088,
    "action": 1,
    "reward": -2.5
  },
  {
    "phase": "TASK",
    "condition": "Cond2",
    "trial_num": 22,
    "trial_length": 8,
    "click_num": 7,
    "RT": 1039,
    "action": 1,
    "reward": -2.4
  },
  {
    "phase": "TASK",
    "condition": "Cond2",
    "trial_num": 22,
    "trial_length": 8,
    "click_num": 8,
    "RT": 1105,
    "action": 1,
    "reward": -4.5
  },
  {
    "phase": "TASK",
    "condition": "Cond2",
    "trial_num": 23,
    "trial_length": 8,
    "click_num": 1,
    "RT": 1274,
    "action": 1,
    "reward": -2.4
  },
  {
    "phase": "TASK",
    "condition": "Cond2",
    "trial_num": 23,
    "trial_length": 8,
    "click_num": 2,
    "RT": 933,
    "action": 1,
    "reward": -2.8
  },
  {
    "phase": "TASK",
    "condition": "Cond2",
    "trial_num": 23,
    "trial_length": 8,
    "click_num": 3,
    "RT": 1040,
    "action": 1,
    "reward": -3.6
  },
  {
    "phase": "TASK",
    "condition": "Cond2",
    "trial_num": 23,
    "trial_length": 8,
    "click_num": 4,
    "RT": 1128,
    "action": 1,
    "reward": -3.2
  },
  {
    "phase": "TASK",
    "condition": "Cond2",
    "trial_num": 23,
    "trial_length": 8,
    "click_num": 5,
    "RT": 1015,
    "action": 1,
    "reward": -2.2
  },
  {
    "phase": "TASK",
    "condition": "Cond2",
    "trial_num": 23,
    "trial_length": 8,
    "click_num": 6,
    "RT": 1369,
    "action": 1,
    "reward": -3.7
  },
  {
    "phase": "TASK",
    "condition": "Cond2",
    "trial_num": 23,
    "trial_length": 8,
    "click_num": 7,
    "RT": 991,
    "action": 1,
    "reward": -3.1
  },
  {
    "phase": "TASK",
    "condition": "Cond2",
    "trial_num": 23,
    "trial_length": 8,
    "click_num": 8,
    "RT": 1193,
    "action": 1,
    "reward": -2.8
  },
  {
    "phase": "TASK",
    "condition": "Cond2",
    "trial_num": 24,
    "trial_length": 6,
    "click_num": 1,
    "RT": 1312,
    "action": 1,
    "reward": -2.8
  },
  {
    "phase": "TASK",
    "condition": "Cond2",
    "trial_num": 24,
    "trial_length": 6,
    "click_num": 2,
    "RT": 1118,
    "action": 1,
    "reward": -3.6
  },
  {
    "phase": "TASK",
    "condition": "Cond2",
    "trial_num": 24,
    "trial_length": 6,
    "click_num": 3,
    "RT": 1031,
    "action": 1,
    "reward": -2.6
  },
  {
    "phase": "TASK",
    "condition": "Cond2",
    "trial_num": 24,
    "trial_length": 6,
    "click_num": 4,
    "RT": 1384,
    "action": 1,
    "reward": -3
  },
  {
    "phase": "TASK",
    "condition": "Cond2",
    "trial_num": 24,
    "trial_length": 6,
    "click_num": 5,
    "RT": 1204,
    "action": 1,
    "reward": -3
  },
  {
    "phase": "TASK",
    "condition": "Cond2",
    "trial_num": 24,
    "trial_length": 6,
    "click_num": 6,
    "RT": 1573,
    "action": 1,
    "reward": -3.9
  },
  {
    "phase": "TASK",
    "condition": "Cond2",
    "trial_num": 25,
    "trial_length": 6,
    "click_num": 1,
    "RT": 1294,
    "action": 1,
    "reward": -3.6
  },
  {
    "phase": "TASK",
    "condition": "Cond2",
    "trial_num": 25,
    "trial_length": 6,
    "click_num": 2,
    "RT": 1305,
    "action": 1,
    "reward": -2.6
  },
  {
    "phase": "TASK",
    "condition": "Cond2",
    "trial_num": 25,
    "trial_length": 6,
    "click_num": 3,
    "RT": 1455,
    "action": 1,
    "reward": -2.5
  },
  {
    "phase": "TASK",
    "condition": "Cond2",
    "trial_num": 25,
    "trial_length": 6,
    "click_num": 4,
    "RT": 1408,
    "action": 1,
    "reward": -2.8
  },
  {
    "phase": "TASK",
    "condition": "Cond2",
    "trial_num": 25,
    "trial_length": 6,
    "click_num": 5,
    "RT": 1200,
    "action": 0,
    "reward": -2.5
  },
  {
    "phase": "TASK",
    "condition": "Cond2",
    "trial_num": 25,
    "trial_length": 6,
    "click_num": 6,
    "RT": 1064,
    "action": 1,
    "reward": -2.8
  },
  {
    "phase": "TASK",
    "condition": "Cond2",
    "trial_num": 26,
    "trial_length": 7,
    "click_num": 1,
    "RT": 1343,
    "action": 1,
    "reward": -2.6
  },
  {
    "phase": "TASK",
    "condition": "Cond2",
    "trial_num": 26,
    "trial_length": 7,
    "click_num": 2,
    "RT": 1439,
    "action": 1,
    "reward": -3.1
  },
  {
    "phase": "TASK",
    "condition": "Cond2",
    "trial_num": 26,
    "trial_length": 7,
    "click_num": 3,
    "RT": 1224,
    "action": 1,
    "reward": -3.1
  },
  {
    "phase": "TASK",
    "condition": "Cond2",
    "trial_num": 26,
    "trial_length": 7,
    "click_num": 4,
    "RT": 1402,
    "action": 1,
    "reward": -2
  },
  {
    "phase": "TASK",
    "condition": "Cond2",
    "trial_num": 26,
    "trial_length": 7,
    "click_num": 5,
    "RT": 2239,
    "action": 1,
    "reward": -3.2
  },
  {
    "phase": "TASK",
    "condition": "Cond2",
    "trial_num": 26,
    "trial_length": 7,
    "click_num": 6,
    "RT": 1706,
    "action": 0,
    "reward": -2
  },
  {
    "phase": "TASK",
    "condition": "Cond2",
    "trial_num": 26,
    "trial_length": 7,
    "click_num": 7,
    "RT": 998,
    "action": 0,
    "reward": -2
  },
  {
    "phase": "TASK",
    "condition": "Cond2",
    "trial_num": 27,
    "trial_length": 7,
    "click_num": 1,
    "RT": 1773,
    "action": 1,
    "reward": -3.7
  },
  {
    "phase": "TASK",
    "condition": "Cond2",
    "trial_num": 27,
    "trial_length": 7,
    "click_num": 2,
    "RT": 1265,
    "action": 1,
    "reward": -2.1
  },
  {
    "phase": "TASK",
    "condition": "Cond2",
    "trial_num": 27,
    "trial_length": 7,
    "click_num": 3,
    "RT": 1263,
    "action": 1,
    "reward": -2.7
  },
  {
    "phase": "TASK",
    "condition": "Cond2",
    "trial_num": 27,
    "trial_length": 7,
    "click_num": 4,
    "RT": 1257,
    "action": 1,
    "reward": -2.2
  },
  {
    "phase": "TASK",
    "condition": "Cond2",
    "trial_num": 27,
    "trial_length": 7,
    "click_num": 5,
    "RT": 1488,
    "action": 1,
    "reward": -3.3
  },
  {
    "phase": "TASK",
    "condition": "Cond2",
    "trial_num": 27,
    "trial_length": 7,
    "click_num": 6,
    "RT": 1079,
    "action": 0,
    "reward": -2.1
  },
  {
    "phase": "TASK",
    "condition": "Cond2",
    "trial_num": 27,
    "trial_length": 7,
    "click_num": 7,
    "RT": 985,
    "action": 0,
    "reward": -2.1
  },
  {
    "phase": "TASK",
    "condition": "Cond2",
    "trial_num": 28,
    "trial_length": 5,
    "click_num": 1,
    "RT": 1447,
    "action": 1,
    "reward": -3.3
  },
  {
    "phase": "TASK",
    "condition": "Cond2",
    "trial_num": 28,
    "trial_length": 5,
    "click_num": 2,
    "RT": 1064,
    "action": 1,
    "reward": -2.7
  },
  {
    "phase": "TASK",
    "condition": "Cond2",
    "trial_num": 28,
    "trial_length": 5,
    "click_num": 3,
    "RT": 1321,
    "action": 1,
    "reward": -2.8
  },
  {
    "phase": "TASK",
    "condition": "Cond2",
    "trial_num": 28,
    "trial_length": 5,
    "click_num": 4,
    "RT": 2151,
    "action": 1,
    "reward": -2.7
  },
  {
    "phase": "TASK",
    "condition": "Cond2",
    "trial_num": 28,
    "trial_length": 5,
    "click_num": 5,
    "RT": 1440,
    "action": 1,
    "reward": -2.3
  },
  {
    "phase": "TASK",
    "condition": "Cond2",
    "trial_num": 29,
    "trial_length": 9,
    "click_num": 1,
    "RT": 1119,
    "action": 1,
    "reward": -2.2
  },
  {
    "phase": "TASK",
    "condition": "Cond2",
    "trial_num": 29,
    "trial_length": 9,
    "click_num": 2,
    "RT": 1032,
    "action": 1,
    "reward": -2.4
  },
  {
    "phase": "TASK",
    "condition": "Cond2",
    "trial_num": 29,
    "trial_length": 9,
    "click_num": 3,
    "RT": 975,
    "action": 1,
    "reward": -3.1
  },
  {
    "phase": "TASK",
    "condition": "Cond2",
    "trial_num": 29,
    "trial_length": 9,
    "click_num": 4,
    "RT": 1096,
    "action": 1,
    "reward": -3.4
  },
  {
    "phase": "TASK",
    "condition": "Cond2",
    "trial_num": 29,
    "trial_length": 9,
    "click_num": 5,
    "RT": 1185,
    "action": 1,
    "reward": -2.6
  },
  {
    "phase": "TASK",
    "condition": "Cond2",
    "trial_num": 29,
    "trial_length": 9,
    "click_num": 6,
    "RT": 953,
    "action": 1,
    "reward": -2.7
  },
  {
    "phase": "TASK",
    "condition": "Cond2",
    "trial_num": 29,
    "trial_length": 9,
    "click_num": 7,
    "RT": 1071,
    "action": 1,
    "reward": -3.3
  },
  {
    "phase": "TASK",
    "condition": "Cond2",
    "trial_num": 29,
    "trial_length": 9,
    "click_num": 8,
    "RT": 1040,
    "action": 1,
    "reward": -1.9
  },
  {
    "phase": "TASK",
    "condition": "Cond2",
    "trial_num": 29,
    "trial_length": 9,
    "click_num": 9,
    "RT": 1800,
    "action": 0,
    "reward": -1.9
  },
  {
    "phase": "TASK",
    "condition": "Cond2",
    "trial_num": 30,
    "trial_length": 7,
    "click_num": 1,
    "RT": 1104,
    "action": 1,
    "reward": -3.2
  },
  {
    "phase": "TASK",
    "condition": "Cond2",
    "trial_num": 30,
    "trial_length": 7,
    "click_num": 2,
    "RT": 1104,
    "action": 1,
    "reward": -2.9
  },
  {
    "phase": "TASK",
    "condition": "Cond2",
    "trial_num": 30,
    "trial_length": 7,
    "click_num": 3,
    "RT": 1078,
    "action": 1,
    "reward": -2.8
  },
  {
    "phase": "TASK",
    "condition": "Cond2",
    "trial_num": 30,
    "trial_length": 7,
    "click_num": 4,
    "RT": 1222,
    "action": 1,
    "reward": -3.3
  },
  {
    "phase": "TASK",
    "condition": "Cond2",
    "trial_num": 30,
    "trial_length": 7,
    "click_num": 5,
    "RT": 1171,
    "action": 1,
    "reward": -3.3
  },
  {
    "phase": "TASK",
    "condition": "Cond2",
    "trial_num": 30,
    "trial_length": 7,
    "click_num": 6,
    "RT": 1161,
    "action": 1,
    "reward": -4
  },
  {
    "phase": "TASK",
    "condition": "Cond2",
    "trial_num": 30,
    "trial_length": 7,
    "click_num": 7,
    "RT": 1183,
    "action": 1,
    "reward": -2.3
  },
  {
    "phase": "TASK",
    "condition": "Cond2",
    "trial_num": 31,
    "trial_length": 10,
    "click_num": 1,
    "RT": 1133,
    "action": 1,
    "reward": -3.9
  },
  {
    "phase": "TASK",
    "condition": "Cond2",
    "trial_num": 31,
    "trial_length": 10,
    "click_num": 2,
    "RT": 1222,
    "action": 1,
    "reward": -2.5
  },
  {
    "phase": "TASK",
    "condition": "Cond2",
    "trial_num": 31,
    "trial_length": 10,
    "click_num": 3,
    "RT": 1225,
    "action": 1,
    "reward": -3.9
  },
  {
    "phase": "TASK",
    "condition": "Cond2",
    "trial_num": 31,
    "trial_length": 10,
    "click_num": 4,
    "RT": 992,
    "action": 1,
    "reward": -2.5
  },
  {
    "phase": "TASK",
    "condition": "Cond2",
    "trial_num": 31,
    "trial_length": 10,
    "click_num": 5,
    "RT": 1062,
    "action": 1,
    "reward": -2.4
  },
  {
    "phase": "TASK",
    "condition": "Cond2",
    "trial_num": 31,
    "trial_length": 10,
    "click_num": 6,
    "RT": 1058,
    "action": 1,
    "reward": -3
  },
  {
    "phase": "TASK",
    "condition": "Cond2",
    "trial_num": 31,
    "trial_length": 10,
    "click_num": 7,
    "RT": 1144,
    "action": 1,
    "reward": -5
  },
  {
    "phase": "TASK",
    "condition": "Cond2",
    "trial_num": 31,
    "trial_length": 10,
    "click_num": 8,
    "RT": 1040,
    "action": 1,
    "reward": -2.7
  },
  {
    "phase": "TASK",
    "condition": "Cond2",
    "trial_num": 31,
    "trial_length": 10,
    "click_num": 9,
    "RT": 1259,
    "action": 1,
    "reward": -3.8
  },
  {
    "phase": "TASK",
    "condition": "Cond2",
    "trial_num": 31,
    "trial_length": 10,
    "click_num": 10,
    "RT": 2070,
    "action": 0,
    "reward": -2.4
  },
  {
    "phase": "TASK",
    "condition": "Cond2",
    "trial_num": 32,
    "trial_length": 8,
    "click_num": 1,
    "RT": 1453,
    "action": 1,
    "reward": -3.6
  },
  {
    "phase": "TASK",
    "condition": "Cond2",
    "trial_num": 32,
    "trial_length": 8,
    "click_num": 2,
    "RT": 1545,
    "action": 1,
    "reward": -3.1
  },
  {
    "phase": "TASK",
    "condition": "Cond2",
    "trial_num": 32,
    "trial_length": 8,
    "click_num": 3,
    "RT": 1328,
    "action": 1,
    "reward": -3
  },
  {
    "phase": "TASK",
    "condition": "Cond2",
    "trial_num": 32,
    "trial_length": 8,
    "click_num": 4,
    "RT": 1071,
    "action": 1,
    "reward": -3
  },
  {
    "phase": "TASK",
    "condition": "Cond2",
    "trial_num": 32,
    "trial_length": 8,
    "click_num": 5,
    "RT": 1187,
    "action": 1,
    "reward": -3.5
  },
  {
    "phase": "TASK",
    "condition": "Cond2",
    "trial_num": 32,
    "trial_length": 8,
    "click_num": 6,
    "RT": 1132,
    "action": 1,
    "reward": -2.5
  },
  {
    "phase": "TASK",
    "condition": "Cond2",
    "trial_num": 32,
    "trial_length": 8,
    "click_num": 7,
    "RT": 1673,
    "action": 1,
    "reward": -2.1
  },
  {
    "phase": "TASK",
    "condition": "Cond2",
    "trial_num": 32,
    "trial_length": 8,
    "click_num": 8,
    "RT": 1596,
    "action": 0,
    "reward": -2.1
  },
  {
    "phase": "TASK",
    "condition": "Cond2",
    "trial_num": 33,
    "trial_length": 8,
    "click_num": 1,
    "RT": 1381,
    "action": 1,
    "reward": -4.2
  },
  {
    "phase": "TASK",
    "condition": "Cond2",
    "trial_num": 33,
    "trial_length": 8,
    "click_num": 2,
    "RT": 1057,
    "action": 1,
    "reward": -3.2
  },
  {
    "phase": "TASK",
    "condition": "Cond2",
    "trial_num": 33,
    "trial_length": 8,
    "click_num": 3,
    "RT": 1031,
    "action": 1,
    "reward": -3.3
  },
  {
    "phase": "TASK",
    "condition": "Cond2",
    "trial_num": 33,
    "trial_length": 8,
    "click_num": 4,
    "RT": 1194,
    "action": 1,
    "reward": -2.2
  },
  {
    "phase": "TASK",
    "condition": "Cond2",
    "trial_num": 33,
    "trial_length": 8,
    "click_num": 5,
    "RT": 1463,
    "action": 1,
    "reward": -3.8
  },
  {
    "phase": "TASK",
    "condition": "Cond2",
    "trial_num": 33,
    "trial_length": 8,
    "click_num": 6,
    "RT": 1032,
    "action": 1,
    "reward": -1.7
  },
  {
    "phase": "TASK",
    "condition": "Cond2",
    "trial_num": 33,
    "trial_length": 8,
    "click_num": 7,
    "RT": 1827,
    "action": 1,
    "reward": -3.5
  },
  {
    "phase": "TASK",
    "condition": "Cond2",
    "trial_num": 33,
    "trial_length": 8,
    "click_num": 8,
    "RT": 1124,
    "action": 0,
    "reward": -1.7
  },
  {
    "phase": "TASK",
    "condition": "Cond2",
    "trial_num": 34,
    "trial_length": 9,
    "click_num": 1,
    "RT": 1478,
    "action": 1,
    "reward": -2.8
  },
  {
    "phase": "TASK",
    "condition": "Cond2",
    "trial_num": 34,
    "trial_length": 9,
    "click_num": 2,
    "RT": 1203,
    "action": 1,
    "reward": -2.2
  },
  {
    "phase": "TASK",
    "condition": "Cond2",
    "trial_num": 34,
    "trial_length": 9,
    "click_num": 3,
    "RT": 1125,
    "action": 1,
    "reward": -3.9
  },
  {
    "phase": "TASK",
    "condition": "Cond2",
    "trial_num": 34,
    "trial_length": 9,
    "click_num": 4,
    "RT": 1072,
    "action": 1,
    "reward": -3.2
  },
  {
    "phase": "TASK",
    "condition": "Cond2",
    "trial_num": 34,
    "trial_length": 9,
    "click_num": 5,
    "RT": 1064,
    "action": 1,
    "reward": -2.5
  },
  {
    "phase": "TASK",
    "condition": "Cond2",
    "trial_num": 34,
    "trial_length": 9,
    "click_num": 6,
    "RT": 887,
    "action": 1,
    "reward": -3.6
  },
  {
    "phase": "TASK",
    "condition": "Cond2",
    "trial_num": 34,
    "trial_length": 9,
    "click_num": 7,
    "RT": 945,
    "action": 1,
    "reward": -2.8
  },
  {
    "phase": "TASK",
    "condition": "Cond2",
    "trial_num": 34,
    "trial_length": 9,
    "click_num": 8,
    "RT": 1024,
    "action": 1,
    "reward": -3.4
  },
  {
    "phase": "TASK",
    "condition": "Cond2",
    "trial_num": 34,
    "trial_length": 9,
    "click_num": 9,
    "RT": 1528,
    "action": 1,
    "reward": -2.7
  },
  {
    "phase": "TASK",
    "condition": "Cond2",
    "trial_num": 35,
    "trial_length": 10,
    "click_num": 1,
    "RT": 1678,
    "action": 1,
    "reward": -2.6
  },
  {
    "phase": "TASK",
    "condition": "Cond2",
    "trial_num": 35,
    "trial_length": 10,
    "click_num": 2,
    "RT": 945,
    "action": 1,
    "reward": -3.8
  },
  {
    "phase": "TASK",
    "condition": "Cond2",
    "trial_num": 35,
    "trial_length": 10,
    "click_num": 3,
    "RT": 1063,
    "action": 1,
    "reward": -2.4
  },
  {
    "phase": "TASK",
    "condition": "Cond2",
    "trial_num": 35,
    "trial_length": 10,
    "click_num": 4,
    "RT": 1033,
    "action": 1,
    "reward": -3.8
  },
  {
    "phase": "TASK",
    "condition": "Cond2",
    "trial_num": 35,
    "trial_length": 10,
    "click_num": 5,
    "RT": 933,
    "action": 1,
    "reward": -2.8
  },
  {
    "phase": "TASK",
    "condition": "Cond2",
    "trial_num": 35,
    "trial_length": 10,
    "click_num": 6,
    "RT": 921,
    "action": 1,
    "reward": -3.8
  },
  {
    "phase": "TASK",
    "condition": "Cond2",
    "trial_num": 35,
    "trial_length": 10,
    "click_num": 7,
    "RT": 1129,
    "action": 1,
    "reward": -2.4
  },
  {
    "phase": "TASK",
    "condition": "Cond2",
    "trial_num": 35,
    "trial_length": 10,
    "click_num": 8,
    "RT": 1144,
    "action": 1,
    "reward": -2.6
  },
  {
    "phase": "TASK",
    "condition": "Cond2",
    "trial_num": 35,
    "trial_length": 10,
    "click_num": 9,
    "RT": 1137,
    "action": 1,
    "reward": -2.4
  },
  {
    "phase": "TASK",
    "condition": "Cond2",
    "trial_num": 35,
    "trial_length": 10,
    "click_num": 10,
    "RT": 1464,
    "action": 1,
    "reward": -2.8
  },
  {
    "phase": "TASK",
    "condition": "Cond2",
    "trial_num": 36,
    "trial_length": 8,
    "click_num": 1,
    "RT": 1146,
    "action": 1,
    "reward": -3.1
  },
  {
    "phase": "TASK",
    "condition": "Cond2",
    "trial_num": 36,
    "trial_length": 8,
    "click_num": 2,
    "RT": 1181,
    "action": 1,
    "reward": -3.3
  },
  {
    "phase": "TASK",
    "condition": "Cond2",
    "trial_num": 36,
    "trial_length": 8,
    "click_num": 3,
    "RT": 1079,
    "action": 1,
    "reward": -4.2
  },
  {
    "phase": "TASK",
    "condition": "Cond2",
    "trial_num": 36,
    "trial_length": 8,
    "click_num": 4,
    "RT": 1000,
    "action": 1,
    "reward": -3.3
  },
  {
    "phase": "TASK",
    "condition": "Cond2",
    "trial_num": 36,
    "trial_length": 8,
    "click_num": 5,
    "RT": 1501,
    "action": 1,
    "reward": -3.7
  },
  {
    "phase": "TASK",
    "condition": "Cond2",
    "trial_num": 36,
    "trial_length": 8,
    "click_num": 6,
    "RT": 1532,
    "action": 1,
    "reward": -2.7
  },
  {
    "phase": "TASK",
    "condition": "Cond2",
    "trial_num": 36,
    "trial_length": 8,
    "click_num": 7,
    "RT": 2319,
    "action": 0,
    "reward": -2.7
  },
  {
    "phase": "TASK",
    "condition": "Cond2",
    "trial_num": 36,
    "trial_length": 8,
    "click_num": 8,
    "RT": 1194,
    "action": 0,
    "reward": -2.7
  },
  {
    "phase": "TASK",
    "condition": "Cond2",
    "trial_num": 37,
    "trial_length": 8,
    "click_num": 1,
    "RT": 1285,
    "action": 1,
    "reward": -2.6
  },
  {
    "phase": "TASK",
    "condition": "Cond2",
    "trial_num": 37,
    "trial_length": 8,
    "click_num": 2,
    "RT": 1040,
    "action": 1,
    "reward": -1.2
  },
  {
    "phase": "TASK",
    "condition": "Cond2",
    "trial_num": 37,
    "trial_length": 8,
    "click_num": 3,
    "RT": 1699,
    "action": 1,
    "reward": -2.7
  },
  {
    "phase": "TASK",
    "condition": "Cond2",
    "trial_num": 37,
    "trial_length": 8,
    "click_num": 4,
    "RT": 1116,
    "action": 0,
    "reward": -1.2
  },
  {
    "phase": "TASK",
    "condition": "Cond2",
    "trial_num": 37,
    "trial_length": 8,
    "click_num": 5,
    "RT": 816,
    "action": 0,
    "reward": -1.2
  },
  {
    "phase": "TASK",
    "condition": "Cond2",
    "trial_num": 37,
    "trial_length": 8,
    "click_num": 6,
    "RT": 1065,
    "action": 0,
    "reward": -1.2
  },
  {
    "phase": "TASK",
    "condition": "Cond2",
    "trial_num": 37,
    "trial_length": 8,
    "click_num": 7,
    "RT": 1280,
    "action": 0,
    "reward": -1.2
  },
  {
    "phase": "TASK",
    "condition": "Cond2",
    "trial_num": 37,
    "trial_length": 8,
    "click_num": 8,
    "RT": 1130,
    "action": 0,
    "reward": -1.2
  },
  {
    "phase": "TASK",
    "condition": "Cond2",
    "trial_num": 38,
    "trial_length": 5,
    "click_num": 1,
    "RT": 1529,
    "action": 1,
    "reward": -1.5
  },
  {
    "phase": "TASK",
    "condition": "Cond2",
    "trial_num": 38,
    "trial_length": 5,
    "click_num": 2,
    "RT": 2464,
    "action": 0,
    "reward": -1.5
  },
  {
    "phase": "TASK",
    "condition": "Cond2",
    "trial_num": 38,
    "trial_length": 5,
    "click_num": 3,
    "RT": 969,
    "action": 0,
    "reward": -1.5
  },
  {
    "phase": "TASK",
    "condition": "Cond2",
    "trial_num": 38,
    "trial_length": 5,
    "click_num": 4,
    "RT": 1031,
    "action": 0,
    "reward": -1.5
  },
  {
    "phase": "TASK",
    "condition": "Cond2",
    "trial_num": 38,
    "trial_length": 5,
    "click_num": 5,
    "RT": 1024,
    "action": 0,
    "reward": -1.5
  },
  {
    "phase": "TASK",
    "condition": "Cond2",
    "trial_num": 39,
    "trial_length": 7,
    "click_num": 1,
    "RT": 1257,
    "action": 1,
    "reward": -2.7
  },
  {
    "phase": "TASK",
    "condition": "Cond2",
    "trial_num": 39,
    "trial_length": 7,
    "click_num": 2,
    "RT": 1741,
    "action": 1,
    "reward": -2.8
  },
  {
    "phase": "TASK",
    "condition": "Cond2",
    "trial_num": 39,
    "trial_length": 7,
    "click_num": 3,
    "RT": 1408,
    "action": 1,
    "reward": -2.6
  },
  {
    "phase": "TASK",
    "condition": "Cond2",
    "trial_num": 39,
    "trial_length": 7,
    "click_num": 4,
    "RT": 1088,
    "action": 1,
    "reward": -2.8
  },
  {
    "phase": "TASK",
    "condition": "Cond2",
    "trial_num": 39,
    "trial_length": 7,
    "click_num": 5,
    "RT": 1153,
    "action": 1,
    "reward": -2.7
  },
  {
    "phase": "TASK",
    "condition": "Cond2",
    "trial_num": 39,
    "trial_length": 7,
    "click_num": 6,
    "RT": 1167,
    "action": 1,
    "reward": -2.7
  },
  {
    "phase": "TASK",
    "condition": "Cond2",
    "trial_num": 39,
    "trial_length": 7,
    "click_num": 7,
    "RT": 1032,
    "action": 1,
    "reward": -3
  },
  {
    "phase": "TASK",
    "condition": "Cond2",
    "trial_num": 40,
    "trial_length": 10,
    "click_num": 1,
    "RT": 1193,
    "action": 1,
    "reward": -1.4
  },
  {
    "phase": "TASK",
    "condition": "Cond2",
    "trial_num": 40,
    "trial_length": 10,
    "click_num": 2,
    "RT": 1292,
    "action": 1,
    "reward": -3.2
  },
  {
    "phase": "TASK",
    "condition": "Cond2",
    "trial_num": 40,
    "trial_length": 10,
    "click_num": 3,
    "RT": 1729,
    "action": 0,
    "reward": -1.4
  },
  {
    "phase": "TASK",
    "condition": "Cond2",
    "trial_num": 40,
    "trial_length": 10,
    "click_num": 4,
    "RT": 991,
    "action": 0,
    "reward": -1.4
  },
  {
    "phase": "TASK",
    "condition": "Cond2",
    "trial_num": 40,
    "trial_length": 10,
    "click_num": 5,
    "RT": 820,
    "action": 0,
    "reward": -1.4
  },
  {
    "phase": "TASK",
    "condition": "Cond2",
    "trial_num": 40,
    "trial_length": 10,
    "click_num": 6,
    "RT": 1869,
    "action": 0,
    "reward": -1.4
  },
  {
    "phase": "TASK",
    "condition": "Cond2",
    "trial_num": 40,
    "trial_length": 10,
    "click_num": 7,
    "RT": 951,
    "action": 0,
    "reward": -1.4
  },
  {
    "phase": "TASK",
    "condition": "Cond2",
    "trial_num": 40,
    "trial_length": 10,
    "click_num": 8,
    "RT": 904,
    "action": 0,
    "reward": -1.4
  },
  {
    "phase": "TASK",
    "condition": "Cond2",
    "trial_num": 40,
    "trial_length": 10,
    "click_num": 9,
    "RT": 980,
    "action": 0,
    "reward": -1.4
  },
  {
    "phase": "TASK",
    "condition": "Cond2",
    "trial_num": 40,
    "trial_length": 10,
    "click_num": 10,
    "RT": 1069,
    "action": 0,
    "reward": -1.4
  },
  {
    "phase": "TASK",
    "condition": "Cond2",
    "trial_num": 41,
    "trial_length": 10,
    "click_num": 1,
    "RT": 1581,
    "action": 1,
    "reward": -3.4
  },
  {
    "phase": "TASK",
    "condition": "Cond2",
    "trial_num": 41,
    "trial_length": 10,
    "click_num": 2,
    "RT": 1392,
    "action": 1,
    "reward": -3
  },
  {
    "phase": "TASK",
    "condition": "Cond2",
    "trial_num": 41,
    "trial_length": 10,
    "click_num": 3,
    "RT": 1056,
    "action": 1,
    "reward": -2.9
  },
  {
    "phase": "TASK",
    "condition": "Cond2",
    "trial_num": 41,
    "trial_length": 10,
    "click_num": 4,
    "RT": 1048,
    "action": 1,
    "reward": -2
  },
  {
    "phase": "TASK",
    "condition": "Cond2",
    "trial_num": 41,
    "trial_length": 10,
    "click_num": 5,
    "RT": 1112,
    "action": 1,
    "reward": -3.8
  },
  {
    "phase": "TASK",
    "condition": "Cond2",
    "trial_num": 41,
    "trial_length": 10,
    "click_num": 6,
    "RT": 983,
    "action": 1,
    "reward": -3.7
  },
  {
    "phase": "TASK",
    "condition": "Cond2",
    "trial_num": 41,
    "trial_length": 10,
    "click_num": 7,
    "RT": 985,
    "action": 1,
    "reward": -4.1
  },
  {
    "phase": "TASK",
    "condition": "Cond2",
    "trial_num": 41,
    "trial_length": 10,
    "click_num": 8,
    "RT": 1011,
    "action": 0,
    "reward": -2
  },
  {
    "phase": "TASK",
    "condition": "Cond2",
    "trial_num": 41,
    "trial_length": 10,
    "click_num": 9,
    "RT": 941,
    "action": 0,
    "reward": -2
  },
  {
    "phase": "TASK",
    "condition": "Cond2",
    "trial_num": 41,
    "trial_length": 10,
    "click_num": 10,
    "RT": 935,
    "action": 0,
    "reward": -2
  },
  {
    "phase": "TASK",
    "condition": "Cond2",
    "trial_num": 42,
    "trial_length": 9,
    "click_num": 1,
    "RT": 2134,
    "action": 1,
    "reward": -2.9
  },
  {
    "phase": "TASK",
    "condition": "Cond2",
    "trial_num": 42,
    "trial_length": 9,
    "click_num": 2,
    "RT": 1208,
    "action": 1,
    "reward": -3.1
  },
  {
    "phase": "TASK",
    "condition": "Cond2",
    "trial_num": 42,
    "trial_length": 9,
    "click_num": 3,
    "RT": 1095,
    "action": 1,
    "reward": -2.8
  },
  {
    "phase": "TASK",
    "condition": "Cond2",
    "trial_num": 42,
    "trial_length": 9,
    "click_num": 4,
    "RT": 1601,
    "action": 1,
    "reward": -3.3
  },
  {
    "phase": "TASK",
    "condition": "Cond2",
    "trial_num": 42,
    "trial_length": 9,
    "click_num": 5,
    "RT": 1176,
    "action": 1,
    "reward": -1.6
  },
  {
    "phase": "TASK",
    "condition": "Cond2",
    "trial_num": 42,
    "trial_length": 9,
    "click_num": 6,
    "RT": 1544,
    "action": 1,
    "reward": -3.6
  },
  {
    "phase": "TASK",
    "condition": "Cond2",
    "trial_num": 42,
    "trial_length": 9,
    "click_num": 7,
    "RT": 1471,
    "action": 0,
    "reward": -1.6
  },
  {
    "phase": "TASK",
    "condition": "Cond2",
    "trial_num": 42,
    "trial_length": 9,
    "click_num": 8,
    "RT": 937,
    "action": 0,
    "reward": -1.6
  },
  {
    "phase": "TASK",
    "condition": "Cond2",
    "trial_num": 42,
    "trial_length": 9,
    "click_num": 9,
    "RT": 1480,
    "action": 0,
    "reward": -1.6
  },
  {
    "phase": "TASK",
    "condition": "Cond2",
    "trial_num": 43,
    "trial_length": 5,
    "click_num": 1,
    "RT": 1551,
    "action": 1,
    "reward": -2.9
  },
  {
    "phase": "TASK",
    "condition": "Cond2",
    "trial_num": 43,
    "trial_length": 5,
    "click_num": 2,
    "RT": 1344,
    "action": 1,
    "reward": -4
  },
  {
    "phase": "TASK",
    "condition": "Cond2",
    "trial_num": 43,
    "trial_length": 5,
    "click_num": 3,
    "RT": 1256,
    "action": 1,
    "reward": -3.2
  },
  {
    "phase": "TASK",
    "condition": "Cond2",
    "trial_num": 43,
    "trial_length": 5,
    "click_num": 4,
    "RT": 1072,
    "action": 0,
    "reward": -2.9
  },
  {
    "phase": "TASK",
    "condition": "Cond2",
    "trial_num": 43,
    "trial_length": 5,
    "click_num": 5,
    "RT": 872,
    "action": 0,
    "reward": -2.9
  },
  {
    "phase": "TASK",
    "condition": "Cond2",
    "trial_num": 44,
    "trial_length": 6,
    "click_num": 1,
    "RT": 1559,
    "action": 1,
    "reward": -2.5
  },
  {
    "phase": "TASK",
    "condition": "Cond2",
    "trial_num": 44,
    "trial_length": 6,
    "click_num": 2,
    "RT": 1224,
    "action": 1,
    "reward": -2.4
  },
  {
    "phase": "TASK",
    "condition": "Cond2",
    "trial_num": 44,
    "trial_length": 6,
    "click_num": 3,
    "RT": 1232,
    "action": 1,
    "reward": -2.7
  },
  {
    "phase": "TASK",
    "condition": "Cond2",
    "trial_num": 44,
    "trial_length": 6,
    "click_num": 4,
    "RT": 1071,
    "action": 1,
    "reward": -3.7
  },
  {
    "phase": "TASK",
    "condition": "Cond2",
    "trial_num": 44,
    "trial_length": 6,
    "click_num": 5,
    "RT": 1345,
    "action": 1,
    "reward": -1.5
  },
  {
    "phase": "TASK",
    "condition": "Cond2",
    "trial_num": 44,
    "trial_length": 6,
    "click_num": 6,
    "RT": 1744,
    "action": 0,
    "reward": -1.5
  },
  {
    "phase": "TASK",
    "condition": "Cond2",
    "trial_num": 45,
    "trial_length": 9,
    "click_num": 1,
    "RT": 1229,
    "action": 1,
    "reward": -2.7
  },
  {
    "phase": "TASK",
    "condition": "Cond2",
    "trial_num": 45,
    "trial_length": 9,
    "click_num": 2,
    "RT": 952,
    "action": 1,
    "reward": -2.5
  },
  {
    "phase": "TASK",
    "condition": "Cond2",
    "trial_num": 45,
    "trial_length": 9,
    "click_num": 3,
    "RT": 912,
    "action": 1,
    "reward": -3.2
  },
  {
    "phase": "TASK",
    "condition": "Cond2",
    "trial_num": 45,
    "trial_length": 9,
    "click_num": 4,
    "RT": 1056,
    "action": 1,
    "reward": -3.6
  },
  {
    "phase": "TASK",
    "condition": "Cond2",
    "trial_num": 45,
    "trial_length": 9,
    "click_num": 5,
    "RT": 1343,
    "action": 1,
    "reward": -2.9
  },
  {
    "phase": "TASK",
    "condition": "Cond2",
    "trial_num": 45,
    "trial_length": 9,
    "click_num": 6,
    "RT": 1098,
    "action": 1,
    "reward": -2.8
  },
  {
    "phase": "TASK",
    "condition": "Cond2",
    "trial_num": 45,
    "trial_length": 9,
    "click_num": 7,
    "RT": 1199,
    "action": 1,
    "reward": -3.8
  },
  {
    "phase": "TASK",
    "condition": "Cond2",
    "trial_num": 45,
    "trial_length": 9,
    "click_num": 8,
    "RT": 1040,
    "action": 1,
    "reward": -3.2
  },
  {
    "phase": "TASK",
    "condition": "Cond2",
    "trial_num": 45,
    "trial_length": 9,
    "click_num": 9,
    "RT": 1064,
    "action": 1,
    "reward": -2.5
  },
  {
    "phase": "TASK",
    "condition": "Cond2",
    "trial_num": 46,
    "trial_length": 10,
    "click_num": 1,
    "RT": 1355,
    "action": 1,
    "reward": -3.1
  },
  {
    "phase": "TASK",
    "condition": "Cond2",
    "trial_num": 46,
    "trial_length": 10,
    "click_num": 2,
    "RT": 1488,
    "action": 1,
    "reward": -3.7
  },
  {
    "phase": "TASK",
    "condition": "Cond2",
    "trial_num": 46,
    "trial_length": 10,
    "click_num": 3,
    "RT": 1089,
    "action": 1,
    "reward": -2.7
  },
  {
    "phase": "TASK",
    "condition": "Cond2",
    "trial_num": 46,
    "trial_length": 10,
    "click_num": 4,
    "RT": 1507,
    "action": 1,
    "reward": -2
  },
  {
    "phase": "TASK",
    "condition": "Cond2",
    "trial_num": 46,
    "trial_length": 10,
    "click_num": 5,
    "RT": 1134,
    "action": 1,
    "reward": -2.9
  },
  {
    "phase": "TASK",
    "condition": "Cond2",
    "trial_num": 46,
    "trial_length": 10,
    "click_num": 6,
    "RT": 1263,
    "action": 1,
    "reward": -3.1
  },
  {
    "phase": "TASK",
    "condition": "Cond2",
    "trial_num": 46,
    "trial_length": 10,
    "click_num": 7,
    "RT": 995,
    "action": 1,
    "reward": -2.3
  },
  {
    "phase": "TASK",
    "condition": "Cond2",
    "trial_num": 46,
    "trial_length": 10,
    "click_num": 8,
    "RT": 1510,
    "action": 1,
    "reward": -2.7
  },
  {
    "phase": "TASK",
    "condition": "Cond2",
    "trial_num": 46,
    "trial_length": 10,
    "click_num": 9,
    "RT": 1015,
    "action": 1,
    "reward": -2
  },
  {
    "phase": "TASK",
    "condition": "Cond2",
    "trial_num": 46,
    "trial_length": 10,
    "click_num": 10,
    "RT": 1336,
    "action": 1,
    "reward": -3.2
  },
  {
    "phase": "TASK",
    "condition": "Cond2",
    "trial_num": 47,
    "trial_length": 9,
    "click_num": 1,
    "RT": 1214,
    "action": 1,
    "reward": -3.5
  },
  {
    "phase": "TASK",
    "condition": "Cond2",
    "trial_num": 47,
    "trial_length": 9,
    "click_num": 2,
    "RT": 1528,
    "action": 1,
    "reward": -2.3
  },
  {
    "phase": "TASK",
    "condition": "Cond2",
    "trial_num": 47,
    "trial_length": 9,
    "click_num": 3,
    "RT": 1007,
    "action": 1,
    "reward": -2
  },
  {
    "phase": "TASK",
    "condition": "Cond2",
    "trial_num": 47,
    "trial_length": 9,
    "click_num": 4,
    "RT": 1020,
    "action": 1,
    "reward": -2.8
  },
  {
    "phase": "TASK",
    "condition": "Cond2",
    "trial_num": 47,
    "trial_length": 9,
    "click_num": 5,
    "RT": 1181,
    "action": 1,
    "reward": -3
  },
  {
    "phase": "TASK",
    "condition": "Cond2",
    "trial_num": 47,
    "trial_length": 9,
    "click_num": 6,
    "RT": 1719,
    "action": 0,
    "reward": -2
  },
  {
    "phase": "TASK",
    "condition": "Cond2",
    "trial_num": 47,
    "trial_length": 9,
    "click_num": 7,
    "RT": 1272,
    "action": 0,
    "reward": -2
  },
  {
    "phase": "TASK",
    "condition": "Cond2",
    "trial_num": 47,
    "trial_length": 9,
    "click_num": 8,
    "RT": 912,
    "action": 0,
    "reward": -2
  },
  {
    "phase": "TASK",
    "condition": "Cond2",
    "trial_num": 47,
    "trial_length": 9,
    "click_num": 9,
    "RT": 1280,
    "action": 0,
    "reward": -2
  },
  {
    "phase": "TASK",
    "condition": "Cond2",
    "trial_num": 48,
    "trial_length": 9,
    "click_num": 1,
    "RT": 1309,
    "action": 1,
    "reward": -3.3
  },
  {
    "phase": "TASK",
    "condition": "Cond2",
    "trial_num": 48,
    "trial_length": 9,
    "click_num": 2,
    "RT": 1096,
    "action": 1,
    "reward": -3.1
  },
  {
    "phase": "TASK",
    "condition": "Cond2",
    "trial_num": 48,
    "trial_length": 9,
    "click_num": 3,
    "RT": 1040,
    "action": 1,
    "reward": -4
  },
  {
    "phase": "TASK",
    "condition": "Cond2",
    "trial_num": 48,
    "trial_length": 9,
    "click_num": 4,
    "RT": 896,
    "action": 1,
    "reward": -2.7
  },
  {
    "phase": "TASK",
    "condition": "Cond2",
    "trial_num": 48,
    "trial_length": 9,
    "click_num": 5,
    "RT": 945,
    "action": 1,
    "reward": -2.8
  },
  {
    "phase": "TASK",
    "condition": "Cond2",
    "trial_num": 48,
    "trial_length": 9,
    "click_num": 6,
    "RT": 855,
    "action": 1,
    "reward": -3.4
  },
  {
    "phase": "TASK",
    "condition": "Cond2",
    "trial_num": 48,
    "trial_length": 9,
    "click_num": 7,
    "RT": 1049,
    "action": 1,
    "reward": -2.9
  },
  {
    "phase": "TASK",
    "condition": "Cond2",
    "trial_num": 48,
    "trial_length": 9,
    "click_num": 8,
    "RT": 895,
    "action": 1,
    "reward": -2.9
  },
  {
    "phase": "TASK",
    "condition": "Cond2",
    "trial_num": 48,
    "trial_length": 9,
    "click_num": 9,
    "RT": 1115,
    "action": 1,
    "reward": -3.6
  },
  {
    "phase": "TASK",
    "condition": "Cond2",
    "trial_num": 49,
    "trial_length": 8,
    "click_num": 1,
    "RT": 1325,
    "action": 1,
    "reward": -2.5
  },
  {
    "phase": "TASK",
    "condition": "Cond2",
    "trial_num": 49,
    "trial_length": 8,
    "click_num": 2,
    "RT": 1448,
    "action": 1,
    "reward": -3
  },
  {
    "phase": "TASK",
    "condition": "Cond2",
    "trial_num": 49,
    "trial_length": 8,
    "click_num": 3,
    "RT": 1059,
    "action": 1,
    "reward": -2.7
  },
  {
    "phase": "TASK",
    "condition": "Cond2",
    "trial_num": 49,
    "trial_length": 8,
    "click_num": 4,
    "RT": 910,
    "action": 1,
    "reward": -2.6
  },
  {
    "phase": "TASK",
    "condition": "Cond2",
    "trial_num": 49,
    "trial_length": 8,
    "click_num": 5,
    "RT": 927,
    "action": 1,
    "reward": -3.1
  },
  {
    "phase": "TASK",
    "condition": "Cond2",
    "trial_num": 49,
    "trial_length": 8,
    "click_num": 6,
    "RT": 1096,
    "action": 1,
    "reward": -2.5
  },
  {
    "phase": "TASK",
    "condition": "Cond2",
    "trial_num": 49,
    "trial_length": 8,
    "click_num": 7,
    "RT": 1008,
    "action": 1,
    "reward": -2.2
  },
  {
    "phase": "TASK",
    "condition": "Cond2",
    "trial_num": 49,
    "trial_length": 8,
    "click_num": 8,
    "RT": 1139,
    "action": 1,
    "reward": -2.6
  },
  {
    "phase": "TASK",
    "condition": "Cond2",
    "trial_num": 50,
    "trial_length": 9,
    "click_num": 1,
    "RT": 1293,
    "action": 1,
    "reward": -2.6
  },
  {
    "phase": "TASK",
    "condition": "Cond2",
    "trial_num": 50,
    "trial_length": 9,
    "click_num": 2,
    "RT": 1115,
    "action": 1,
    "reward": -3.7
  },
  {
    "phase": "TASK",
    "condition": "Cond2",
    "trial_num": 50,
    "trial_length": 9,
    "click_num": 3,
    "RT": 1038,
    "action": 1,
    "reward": -2.6
  },
  {
    "phase": "TASK",
    "condition": "Cond2",
    "trial_num": 50,
    "trial_length": 9,
    "click_num": 4,
    "RT": 1119,
    "action": 1,
    "reward": -2.3
  },
  {
    "phase": "TASK",
    "condition": "Cond2",
    "trial_num": 50,
    "trial_length": 9,
    "click_num": 5,
    "RT": 984,
    "action": 1,
    "reward": -2.9
  },
  {
    "phase": "TASK",
    "condition": "Cond2",
    "trial_num": 50,
    "trial_length": 9,
    "click_num": 6,
    "RT": 1040,
    "action": 1,
    "reward": -2.7
  },
  {
    "phase": "TASK",
    "condition": "Cond2",
    "trial_num": 50,
    "trial_length": 9,
    "click_num": 7,
    "RT": 2673,
    "action": 0,
    "reward": -2.3
  },
  {
    "phase": "TASK",
    "condition": "Cond2",
    "trial_num": 50,
    "trial_length": 9,
    "click_num": 8,
    "RT": 854,
    "action": 0,
    "reward": -2.3
  },
  {
    "phase": "TASK",
    "condition": "Cond2",
    "trial_num": 50,
    "trial_length": 9,
    "click_num": 9,
    "RT": 1168,
    "action": 0,
    "reward": -2.3
  },
  {
    "phase": "TASK",
    "condition": "Cond2",
    "trial_num": 51,
    "trial_length": 6,
    "click_num": 1,
    "RT": 1544,
    "action": 1,
    "reward": -3.2
  },
  {
    "phase": "TASK",
    "condition": "Cond2",
    "trial_num": 51,
    "trial_length": 6,
    "click_num": 2,
    "RT": 1158,
    "action": 1,
    "reward": -4.2
  },
  {
    "phase": "TASK",
    "condition": "Cond2",
    "trial_num": 51,
    "trial_length": 6,
    "click_num": 3,
    "RT": 959,
    "action": 1,
    "reward": -3.6
  },
  {
    "phase": "TASK",
    "condition": "Cond2",
    "trial_num": 51,
    "trial_length": 6,
    "click_num": 4,
    "RT": 1081,
    "action": 1,
    "reward": -3.7
  },
  {
    "phase": "TASK",
    "condition": "Cond2",
    "trial_num": 51,
    "trial_length": 6,
    "click_num": 5,
    "RT": 2646,
    "action": 0,
    "reward": -3.2
  },
  {
    "phase": "TASK",
    "condition": "Cond2",
    "trial_num": 51,
    "trial_length": 6,
    "click_num": 6,
    "RT": 1282,
    "action": 0,
    "reward": -3.2
  },
  {
    "phase": "TASK",
    "condition": "Cond2",
    "trial_num": 52,
    "trial_length": 7,
    "click_num": 1,
    "RT": 1133,
    "action": 1,
    "reward": -3
  },
  {
    "phase": "TASK",
    "condition": "Cond2",
    "trial_num": 52,
    "trial_length": 7,
    "click_num": 2,
    "RT": 1036,
    "action": 1,
    "reward": -3.4
  },
  {
    "phase": "TASK",
    "condition": "Cond2",
    "trial_num": 52,
    "trial_length": 7,
    "click_num": 3,
    "RT": 1125,
    "action": 1,
    "reward": -2.7
  },
  {
    "phase": "TASK",
    "condition": "Cond2",
    "trial_num": 52,
    "trial_length": 7,
    "click_num": 4,
    "RT": 984,
    "action": 1,
    "reward": -3
  },
  {
    "phase": "TASK",
    "condition": "Cond2",
    "trial_num": 52,
    "trial_length": 7,
    "click_num": 5,
    "RT": 945,
    "action": 1,
    "reward": -2.8
  },
  {
    "phase": "TASK",
    "condition": "Cond2",
    "trial_num": 52,
    "trial_length": 7,
    "click_num": 6,
    "RT": 920,
    "action": 1,
    "reward": -2.2
  },
  {
    "phase": "TASK",
    "condition": "Cond2",
    "trial_num": 52,
    "trial_length": 7,
    "click_num": 7,
    "RT": 982,
    "action": 1,
    "reward": -3.8
  },
  {
    "phase": "TASK",
    "condition": "Cond2",
    "trial_num": 53,
    "trial_length": 10,
    "click_num": 1,
    "RT": 1335,
    "action": 1,
    "reward": -2.7
  },
  {
    "phase": "TASK",
    "condition": "Cond2",
    "trial_num": 53,
    "trial_length": 10,
    "click_num": 2,
    "RT": 993,
    "action": 1,
    "reward": -2.1
  },
  {
    "phase": "TASK",
    "condition": "Cond2",
    "trial_num": 53,
    "trial_length": 10,
    "click_num": 3,
    "RT": 990,
    "action": 1,
    "reward": -3
  },
  {
    "phase": "TASK",
    "condition": "Cond2",
    "trial_num": 53,
    "trial_length": 10,
    "click_num": 4,
    "RT": 1012,
    "action": 1,
    "reward": -1.9
  },
  {
    "phase": "TASK",
    "condition": "Cond2",
    "trial_num": 53,
    "trial_length": 10,
    "click_num": 5,
    "RT": 1494,
    "action": 1,
    "reward": -3.1
  },
  {
    "phase": "TASK",
    "condition": "Cond2",
    "trial_num": 53,
    "trial_length": 10,
    "click_num": 6,
    "RT": 1040,
    "action": 1,
    "reward": -1.7
  },
  {
    "phase": "TASK",
    "condition": "Cond2",
    "trial_num": 53,
    "trial_length": 10,
    "click_num": 7,
    "RT": 1106,
    "action": 1,
    "reward": -3.3
  },
  {
    "phase": "TASK",
    "condition": "Cond2",
    "trial_num": 53,
    "trial_length": 10,
    "click_num": 8,
    "RT": 1087,
    "action": 1,
    "reward": -3
  },
  {
    "phase": "TASK",
    "condition": "Cond2",
    "trial_num": 53,
    "trial_length": 10,
    "click_num": 9,
    "RT": 1118,
    "action": 0,
    "reward": -1.7
  },
  {
    "phase": "TASK",
    "condition": "Cond2",
    "trial_num": 53,
    "trial_length": 10,
    "click_num": 10,
    "RT": 904,
    "action": 0,
    "reward": -1.7
  },
  {
    "phase": "TASK",
    "condition": "Cond2",
    "trial_num": 54,
    "trial_length": 5,
    "click_num": 1,
    "RT": 1165,
    "action": 1,
    "reward": -3.1
  },
  {
    "phase": "TASK",
    "condition": "Cond2",
    "trial_num": 54,
    "trial_length": 5,
    "click_num": 2,
    "RT": 988,
    "action": 1,
    "reward": -3.4
  },
  {
    "phase": "TASK",
    "condition": "Cond2",
    "trial_num": 54,
    "trial_length": 5,
    "click_num": 3,
    "RT": 1189,
    "action": 1,
    "reward": -2.2
  },
  {
    "phase": "TASK",
    "condition": "Cond2",
    "trial_num": 54,
    "trial_length": 5,
    "click_num": 4,
    "RT": 1152,
    "action": 1,
    "reward": -3.5
  },
  {
    "phase": "TASK",
    "condition": "Cond2",
    "trial_num": 54,
    "trial_length": 5,
    "click_num": 5,
    "RT": 1169,
    "action": 1,
    "reward": -2.9
  },
  {
    "phase": "TASK",
    "condition": "Cond2",
    "trial_num": 55,
    "trial_length": 5,
    "click_num": 1,
    "RT": 1237,
    "action": 1,
    "reward": -2.9
  },
  {
    "phase": "TASK",
    "condition": "Cond2",
    "trial_num": 55,
    "trial_length": 5,
    "click_num": 2,
    "RT": 1087,
    "action": 1,
    "reward": -1.9
  },
  {
    "phase": "TASK",
    "condition": "Cond2",
    "trial_num": 55,
    "trial_length": 5,
    "click_num": 3,
    "RT": 992,
    "action": 1,
    "reward": -2.9
  },
  {
    "phase": "TASK",
    "condition": "Cond2",
    "trial_num": 55,
    "trial_length": 5,
    "click_num": 4,
    "RT": 1355,
    "action": 0,
    "reward": -1.9
  },
  {
    "phase": "TASK",
    "condition": "Cond2",
    "trial_num": 55,
    "trial_length": 5,
    "click_num": 5,
    "RT": 1222,
    "action": 0,
    "reward": -1.9
  },
  {
    "phase": "TASK",
    "condition": "Cond2",
    "trial_num": 56,
    "trial_length": 6,
    "click_num": 1,
    "RT": 1310,
    "action": 1,
    "reward": -3.9
  },
  {
    "phase": "TASK",
    "condition": "Cond2",
    "trial_num": 56,
    "trial_length": 6,
    "click_num": 2,
    "RT": 983,
    "action": 1,
    "reward": -3.6
  },
  {
    "phase": "TASK",
    "condition": "Cond2",
    "trial_num": 56,
    "trial_length": 6,
    "click_num": 3,
    "RT": 1035,
    "action": 1,
    "reward": -2.9
  },
  {
    "phase": "TASK",
    "condition": "Cond2",
    "trial_num": 56,
    "trial_length": 6,
    "click_num": 4,
    "RT": 1284,
    "action": 1,
    "reward": -2.3
  },
  {
    "phase": "TASK",
    "condition": "Cond2",
    "trial_num": 56,
    "trial_length": 6,
    "click_num": 5,
    "RT": 985,
    "action": 1,
    "reward": -2.2
  },
  {
    "phase": "TASK",
    "condition": "Cond2",
    "trial_num": 56,
    "trial_length": 6,
    "click_num": 6,
    "RT": 976,
    "action": 1,
    "reward": -3.1
  },
  {
    "phase": "TASK",
    "condition": "Cond2",
    "trial_num": 57,
    "trial_length": 6,
    "click_num": 1,
    "RT": 1214,
    "action": 1,
    "reward": -4.5
  },
  {
    "phase": "TASK",
    "condition": "Cond2",
    "trial_num": 57,
    "trial_length": 6,
    "click_num": 2,
    "RT": 1155,
    "action": 1,
    "reward": -3.2
  },
  {
    "phase": "TASK",
    "condition": "Cond2",
    "trial_num": 57,
    "trial_length": 6,
    "click_num": 3,
    "RT": 1286,
    "action": 1,
    "reward": -3.7
  },
  {
    "phase": "TASK",
    "condition": "Cond2",
    "trial_num": 57,
    "trial_length": 6,
    "click_num": 4,
    "RT": 1095,
    "action": 1,
    "reward": -3
  },
  {
    "phase": "TASK",
    "condition": "Cond2",
    "trial_num": 57,
    "trial_length": 6,
    "click_num": 5,
    "RT": 1051,
    "action": 1,
    "reward": -2.5
  },
  {
    "phase": "TASK",
    "condition": "Cond2",
    "trial_num": 57,
    "trial_length": 6,
    "click_num": 6,
    "RT": 1046,
    "action": 1,
    "reward": -4.1
  },
  {
    "phase": "TASK",
    "condition": "Cond2",
    "trial_num": 58,
    "trial_length": 7,
    "click_num": 1,
    "RT": 1102,
    "action": 1,
    "reward": -3
  },
  {
    "phase": "TASK",
    "condition": "Cond2",
    "trial_num": 58,
    "trial_length": 7,
    "click_num": 2,
    "RT": 1128,
    "action": 1,
    "reward": -3
  },
  {
    "phase": "TASK",
    "condition": "Cond2",
    "trial_num": 58,
    "trial_length": 7,
    "click_num": 3,
    "RT": 1250,
    "action": 1,
    "reward": -3.6
  },
  {
    "phase": "TASK",
    "condition": "Cond2",
    "trial_num": 58,
    "trial_length": 7,
    "click_num": 4,
    "RT": 1222,
    "action": 1,
    "reward": -3.2
  },
  {
    "phase": "TASK",
    "condition": "Cond2",
    "trial_num": 58,
    "trial_length": 7,
    "click_num": 5,
    "RT": 1166,
    "action": 1,
    "reward": -2.7
  },
  {
    "phase": "TASK",
    "condition": "Cond2",
    "trial_num": 58,
    "trial_length": 7,
    "click_num": 6,
    "RT": 1602,
    "action": 1,
    "reward": -3
  },
  {
    "phase": "TASK",
    "condition": "Cond2",
    "trial_num": 58,
    "trial_length": 7,
    "click_num": 7,
    "RT": 1057,
    "action": 1,
    "reward": -3.6
  },
  {
    "phase": "TASK",
    "condition": "Cond2",
    "trial_num": 59,
    "trial_length": 6,
    "click_num": 1,
    "RT": 1167,
    "action": 1,
    "reward": -3.2
  },
  {
    "phase": "TASK",
    "condition": "Cond2",
    "trial_num": 59,
    "trial_length": 6,
    "click_num": 2,
    "RT": 1034,
    "action": 1,
    "reward": -3.7
  },
  {
    "phase": "TASK",
    "condition": "Cond2",
    "trial_num": 59,
    "trial_length": 6,
    "click_num": 3,
    "RT": 822,
    "action": 1,
    "reward": -3.5
  },
  {
    "phase": "TASK",
    "condition": "Cond2",
    "trial_num": 59,
    "trial_length": 6,
    "click_num": 4,
    "RT": 888,
    "action": 1,
    "reward": -2.9
  },
  {
    "phase": "TASK",
    "condition": "Cond2",
    "trial_num": 59,
    "trial_length": 6,
    "click_num": 5,
    "RT": 971,
    "action": 1,
    "reward": -1.9
  },
  {
    "phase": "TASK",
    "condition": "Cond2",
    "trial_num": 59,
    "trial_length": 6,
    "click_num": 6,
    "RT": 2525,
    "action": 0,
    "reward": -1.9
  },
  {
    "phase": "TASK",
    "condition": "Cond2",
    "trial_num": 60,
    "trial_length": 6,
    "click_num": 1,
    "RT": 1094,
    "action": 1,
    "reward": -4.1
  },
  {
    "phase": "TASK",
    "condition": "Cond2",
    "trial_num": 60,
    "trial_length": 6,
    "click_num": 2,
    "RT": 1008,
    "action": 1,
    "reward": -3.6
  },
  {
    "phase": "TASK",
    "condition": "Cond2",
    "trial_num": 60,
    "trial_length": 6,
    "click_num": 3,
    "RT": 935,
    "action": 1,
    "reward": -2.4
  },
  {
    "phase": "TASK",
    "condition": "Cond2",
    "trial_num": 60,
    "trial_length": 6,
    "click_num": 4,
    "RT": 1040,
    "action": 1,
    "reward": -2.7
  },
  {
    "phase": "TASK",
    "condition": "Cond2",
    "trial_num": 60,
    "trial_length": 6,
    "click_num": 5,
    "RT": 985,
    "action": 1,
    "reward": -4.2
  },
  {
    "phase": "TASK",
    "condition": "Cond2",
    "trial_num": 60,
    "trial_length": 6,
    "click_num": 6,
    "RT": 1423,
    "action": 1,
    "reward": -1.9
  },
  {
    "phase": "TASK",
    "condition": "Cond2",
    "trial_num": 61,
    "trial_length": 9,
    "click_num": 1,
    "RT": 1287,
    "action": 1,
    "reward": -2.5
  },
  {
    "phase": "TASK",
    "condition": "Cond2",
    "trial_num": 61,
    "trial_length": 9,
    "click_num": 2,
    "RT": 929,
    "action": 1,
    "reward": -3.7
  },
  {
    "phase": "TASK",
    "condition": "Cond2",
    "trial_num": 61,
    "trial_length": 9,
    "click_num": 3,
    "RT": 856,
    "action": 1,
    "reward": -2.9
  },
  {
    "phase": "TASK",
    "condition": "Cond2",
    "trial_num": 61,
    "trial_length": 9,
    "click_num": 4,
    "RT": 896,
    "action": 1,
    "reward": -3.1
  },
  {
    "phase": "TASK",
    "condition": "Cond2",
    "trial_num": 61,
    "trial_length": 9,
    "click_num": 5,
    "RT": 970,
    "action": 1,
    "reward": -2.9
  },
  {
    "phase": "TASK",
    "condition": "Cond2",
    "trial_num": 61,
    "trial_length": 9,
    "click_num": 6,
    "RT": 1069,
    "action": 1,
    "reward": -3.2
  },
  {
    "phase": "TASK",
    "condition": "Cond2",
    "trial_num": 61,
    "trial_length": 9,
    "click_num": 7,
    "RT": 2049,
    "action": 1,
    "reward": -2.8
  },
  {
    "phase": "TASK",
    "condition": "Cond2",
    "trial_num": 61,
    "trial_length": 9,
    "click_num": 8,
    "RT": 999,
    "action": 1,
    "reward": -3.5
  },
  {
    "phase": "TASK",
    "condition": "Cond2",
    "trial_num": 61,
    "trial_length": 9,
    "click_num": 9,
    "RT": 1104,
    "action": 1,
    "reward": -3.4
  },
  {
    "phase": "TASK",
    "condition": "Cond2",
    "trial_num": 62,
    "trial_length": 8,
    "click_num": 1,
    "RT": 1511,
    "action": 1,
    "reward": -4.6
  },
  {
    "phase": "TASK",
    "condition": "Cond2",
    "trial_num": 62,
    "trial_length": 8,
    "click_num": 2,
    "RT": 1287,
    "action": 1,
    "reward": -2.7
  },
  {
    "phase": "TASK",
    "condition": "Cond2",
    "trial_num": 62,
    "trial_length": 8,
    "click_num": 3,
    "RT": 952,
    "action": 1,
    "reward": -3.3
  },
  {
    "phase": "TASK",
    "condition": "Cond2",
    "trial_num": 62,
    "trial_length": 8,
    "click_num": 4,
    "RT": 872,
    "action": 1,
    "reward": -3.3
  },
  {
    "phase": "TASK",
    "condition": "Cond2",
    "trial_num": 62,
    "trial_length": 8,
    "click_num": 5,
    "RT": 1264,
    "action": 1,
    "reward": -2.6
  },
  {
    "phase": "TASK",
    "condition": "Cond2",
    "trial_num": 62,
    "trial_length": 8,
    "click_num": 6,
    "RT": 960,
    "action": 1,
    "reward": -2.8
  },
  {
    "phase": "TASK",
    "condition": "Cond2",
    "trial_num": 62,
    "trial_length": 8,
    "click_num": 7,
    "RT": 2080,
    "action": 1,
    "reward": -2.9
  },
  {
    "phase": "TASK",
    "condition": "Cond2",
    "trial_num": 62,
    "trial_length": 8,
    "click_num": 8,
    "RT": 1268,
    "action": 1,
    "reward": -4.3
  },
  {
    "phase": "TASK",
    "condition": "Cond2",
    "trial_num": 63,
    "trial_length": 6,
    "click_num": 1,
    "RT": 1261,
    "action": 1,
    "reward": -2.6
  },
  {
    "phase": "TASK",
    "condition": "Cond2",
    "trial_num": 63,
    "trial_length": 6,
    "click_num": 2,
    "RT": 1008,
    "action": 1,
    "reward": -3
  },
  {
    "phase": "TASK",
    "condition": "Cond2",
    "trial_num": 63,
    "trial_length": 6,
    "click_num": 3,
    "RT": 1003,
    "action": 1,
    "reward": -3.9
  },
  {
    "phase": "TASK",
    "condition": "Cond2",
    "trial_num": 63,
    "trial_length": 6,
    "click_num": 4,
    "RT": 1111,
    "action": 1,
    "reward": -2
  },
  {
    "phase": "TASK",
    "condition": "Cond2",
    "trial_num": 63,
    "trial_length": 6,
    "click_num": 5,
    "RT": 1294,
    "action": 1,
    "reward": -3.1
  },
  {
    "phase": "TASK",
    "condition": "Cond2",
    "trial_num": 63,
    "trial_length": 6,
    "click_num": 6,
    "RT": 1080,
    "action": 1,
    "reward": -2.8
  },
  {
    "phase": "TASK",
    "condition": "Cond2",
    "trial_num": 64,
    "trial_length": 10,
    "click_num": 1,
    "RT": 978,
    "action": 1,
    "reward": -3.5
  },
  {
    "phase": "TASK",
    "condition": "Cond2",
    "trial_num": 64,
    "trial_length": 10,
    "click_num": 2,
    "RT": 1088,
    "action": 1,
    "reward": -3.1
  },
  {
    "phase": "TASK",
    "condition": "Cond2",
    "trial_num": 64,
    "trial_length": 10,
    "click_num": 3,
    "RT": 1872,
    "action": 1,
    "reward": -2.9
  },
  {
    "phase": "TASK",
    "condition": "Cond2",
    "trial_num": 64,
    "trial_length": 10,
    "click_num": 4,
    "RT": 1191,
    "action": 1,
    "reward": -3.3
  },
  {
    "phase": "TASK",
    "condition": "Cond2",
    "trial_num": 64,
    "trial_length": 10,
    "click_num": 5,
    "RT": 920,
    "action": 1,
    "reward": -3
  },
  {
    "phase": "TASK",
    "condition": "Cond2",
    "trial_num": 64,
    "trial_length": 10,
    "click_num": 6,
    "RT": 848,
    "action": 1,
    "reward": -4.3
  },
  {
    "phase": "TASK",
    "condition": "Cond2",
    "trial_num": 64,
    "trial_length": 10,
    "click_num": 7,
    "RT": 817,
    "action": 1,
    "reward": -2.5
  },
  {
    "phase": "TASK",
    "condition": "Cond2",
    "trial_num": 64,
    "trial_length": 10,
    "click_num": 8,
    "RT": 1399,
    "action": 1,
    "reward": -4
  },
  {
    "phase": "TASK",
    "condition": "Cond2",
    "trial_num": 64,
    "trial_length": 10,
    "click_num": 9,
    "RT": 936,
    "action": 1,
    "reward": -3.6
  },
  {
    "phase": "TASK",
    "condition": "Cond2",
    "trial_num": 64,
    "trial_length": 10,
    "click_num": 10,
    "RT": 1152,
    "action": 1,
    "reward": -3.6
  },
  {
    "phase": "TASK",
    "condition": "Cond2",
    "trial_num": 65,
    "trial_length": 8,
    "click_num": 1,
    "RT": 1791,
    "action": 1,
    "reward": -2.5
  },
  {
    "phase": "TASK",
    "condition": "Cond2",
    "trial_num": 65,
    "trial_length": 8,
    "click_num": 2,
    "RT": 1103,
    "action": 1,
    "reward": -4.4
  },
  {
    "phase": "TASK",
    "condition": "Cond2",
    "trial_num": 65,
    "trial_length": 8,
    "click_num": 3,
    "RT": 952,
    "action": 1,
    "reward": -2.4
  },
  {
    "phase": "TASK",
    "condition": "Cond2",
    "trial_num": 65,
    "trial_length": 8,
    "click_num": 4,
    "RT": 1499,
    "action": 1,
    "reward": -4
  },
  {
    "phase": "TASK",
    "condition": "Cond2",
    "trial_num": 65,
    "trial_length": 8,
    "click_num": 5,
    "RT": 1046,
    "action": 1,
    "reward": -3
  },
  {
    "phase": "TASK",
    "condition": "Cond2",
    "trial_num": 65,
    "trial_length": 8,
    "click_num": 6,
    "RT": 904,
    "action": 1,
    "reward": -2.2
  },
  {
    "phase": "TASK",
    "condition": "Cond2",
    "trial_num": 65,
    "trial_length": 8,
    "click_num": 7,
    "RT": 920,
    "action": 1,
    "reward": -3.9
  },
  {
    "phase": "TASK",
    "condition": "Cond2",
    "trial_num": 65,
    "trial_length": 8,
    "click_num": 8,
    "RT": 943,
    "action": 1,
    "reward": -3.7
  },
  {
    "phase": "TASK",
    "condition": "Cond2",
    "trial_num": 66,
    "trial_length": 5,
    "click_num": 1,
    "RT": 1336,
    "action": 1,
    "reward": -2
  },
  {
    "phase": "TASK",
    "condition": "Cond2",
    "trial_num": 66,
    "trial_length": 5,
    "click_num": 2,
    "RT": 1111,
    "action": 1,
    "reward": -3.1
  },
  {
    "phase": "TASK",
    "condition": "Cond2",
    "trial_num": 66,
    "trial_length": 5,
    "click_num": 3,
    "RT": 1168,
    "action": 1,
    "reward": -2
  },
  {
    "phase": "TASK",
    "condition": "Cond2",
    "trial_num": 66,
    "trial_length": 5,
    "click_num": 4,
    "RT": 904,
    "action": 1,
    "reward": -2.3
  },
  {
    "phase": "TASK",
    "condition": "Cond2",
    "trial_num": 66,
    "trial_length": 5,
    "click_num": 5,
    "RT": 1086,
    "action": 1,
    "reward": -2.3
  },
  {
    "phase": "TASK",
    "condition": "Cond2",
    "trial_num": 67,
    "trial_length": 10,
    "click_num": 1,
    "RT": 1079,
    "action": 1,
    "reward": -3.7
  },
  {
    "phase": "TASK",
    "condition": "Cond2",
    "trial_num": 67,
    "trial_length": 10,
    "click_num": 2,
    "RT": 880,
    "action": 1,
    "reward": -4.3
  },
  {
    "phase": "TASK",
    "condition": "Cond2",
    "trial_num": 67,
    "trial_length": 10,
    "click_num": 3,
    "RT": 976,
    "action": 1,
    "reward": -2.9
  },
  {
    "phase": "TASK",
    "condition": "Cond2",
    "trial_num": 67,
    "trial_length": 10,
    "click_num": 4,
    "RT": 880,
    "action": 1,
    "reward": -2.5
  },
  {
    "phase": "TASK",
    "condition": "Cond2",
    "trial_num": 67,
    "trial_length": 10,
    "click_num": 5,
    "RT": 936,
    "action": 1,
    "reward": -3.7
  },
  {
    "phase": "TASK",
    "condition": "Cond2",
    "trial_num": 67,
    "trial_length": 10,
    "click_num": 6,
    "RT": 1124,
    "action": 1,
    "reward": -3.7
  },
  {
    "phase": "TASK",
    "condition": "Cond2",
    "trial_num": 67,
    "trial_length": 10,
    "click_num": 7,
    "RT": 1341,
    "action": 1,
    "reward": -3.4
  },
  {
    "phase": "TASK",
    "condition": "Cond2",
    "trial_num": 67,
    "trial_length": 10,
    "click_num": 8,
    "RT": 975,
    "action": 1,
    "reward": -3
  },
  {
    "phase": "TASK",
    "condition": "Cond2",
    "trial_num": 67,
    "trial_length": 10,
    "click_num": 9,
    "RT": 1136,
    "action": 1,
    "reward": -3.1
  },
  {
    "phase": "TASK",
    "condition": "Cond2",
    "trial_num": 67,
    "trial_length": 10,
    "click_num": 10,
    "RT": 987,
    "action": 1,
    "reward": -3.8
  },
  {
    "phase": "TASK",
    "condition": "Cond2",
    "trial_num": 68,
    "trial_length": 5,
    "click_num": 1,
    "RT": 1341,
    "action": 1,
    "reward": -3.4
  },
  {
    "phase": "TASK",
    "condition": "Cond2",
    "trial_num": 68,
    "trial_length": 5,
    "click_num": 2,
    "RT": 934,
    "action": 1,
    "reward": -2.9
  },
  {
    "phase": "TASK",
    "condition": "Cond2",
    "trial_num": 68,
    "trial_length": 5,
    "click_num": 3,
    "RT": 2300,
    "action": 1,
    "reward": -3
  },
  {
    "phase": "TASK",
    "condition": "Cond2",
    "trial_num": 68,
    "trial_length": 5,
    "click_num": 4,
    "RT": 1126,
    "action": 1,
    "reward": -4.3
  },
  {
    "phase": "TASK",
    "condition": "Cond2",
    "trial_num": 68,
    "trial_length": 5,
    "click_num": 5,
    "RT": 920,
    "action": 1,
    "reward": -2.5
  },
  {
    "phase": "TASK",
    "condition": "Cond2",
    "trial_num": 69,
    "trial_length": 6,
    "click_num": 1,
    "RT": 1524,
    "action": 1,
    "reward": -3.3
  },
  {
    "phase": "TASK",
    "condition": "Cond2",
    "trial_num": 69,
    "trial_length": 6,
    "click_num": 2,
    "RT": 1257,
    "action": 1,
    "reward": -4.4
  },
  {
    "phase": "TASK",
    "condition": "Cond2",
    "trial_num": 69,
    "trial_length": 6,
    "click_num": 3,
    "RT": 991,
    "action": 1,
    "reward": -1.7
  },
  {
    "phase": "TASK",
    "condition": "Cond2",
    "trial_num": 69,
    "trial_length": 6,
    "click_num": 4,
    "RT": 1321,
    "action": 1,
    "reward": -3.1
  },
  {
    "phase": "TASK",
    "condition": "Cond2",
    "trial_num": 69,
    "trial_length": 6,
    "click_num": 5,
    "RT": 1587,
    "action": 0,
    "reward": -1.7
  },
  {
    "phase": "TASK",
    "condition": "Cond2",
    "trial_num": 69,
    "trial_length": 6,
    "click_num": 6,
    "RT": 1757,
    "action": 0,
    "reward": -1.7
  },
  {
    "phase": "TASK",
    "condition": "Cond2",
    "trial_num": 70,
    "trial_length": 8,
    "click_num": 1,
    "RT": 1679,
    "action": 1,
    "reward": -2.6
  },
  {
    "phase": "TASK",
    "condition": "Cond2",
    "trial_num": 70,
    "trial_length": 8,
    "click_num": 2,
    "RT": 3368,
    "action": 1,
    "reward": -3.4
  },
  {
    "phase": "TASK",
    "condition": "Cond2",
    "trial_num": 70,
    "trial_length": 8,
    "click_num": 3,
    "RT": 1112,
    "action": 1,
    "reward": -2.8
  },
  {
    "phase": "TASK",
    "condition": "Cond2",
    "trial_num": 70,
    "trial_length": 8,
    "click_num": 4,
    "RT": 836,
    "action": 1,
    "reward": -1.2
  },
  {
    "phase": "TASK",
    "condition": "Cond2",
    "trial_num": 70,
    "trial_length": 8,
    "click_num": 5,
    "RT": 1492,
    "action": 0,
    "reward": -1.2
  },
  {
    "phase": "TASK",
    "condition": "Cond2",
    "trial_num": 70,
    "trial_length": 8,
    "click_num": 6,
    "RT": 808,
    "action": 0,
    "reward": -1.2
  },
  {
    "phase": "TASK",
    "condition": "Cond2",
    "trial_num": 70,
    "trial_length": 8,
    "click_num": 7,
    "RT": 773,
    "action": 0,
    "reward": -1.2
  },
  {
    "phase": "TASK",
    "condition": "Cond2",
    "trial_num": 70,
    "trial_length": 8,
    "click_num": 8,
    "RT": 906,
    "action": 0,
    "reward": -1.2
  },
  {
    "phase": "TASK",
    "condition": "Cond2",
    "trial_num": 71,
    "trial_length": 9,
    "click_num": 1,
    "RT": 1021,
    "action": 1,
    "reward": -3.6
  },
  {
    "phase": "TASK",
    "condition": "Cond2",
    "trial_num": 71,
    "trial_length": 9,
    "click_num": 2,
    "RT": 1055,
    "action": 1,
    "reward": -3.7
  },
  {
    "phase": "TASK",
    "condition": "Cond2",
    "trial_num": 71,
    "trial_length": 9,
    "click_num": 3,
    "RT": 912,
    "action": 1,
    "reward": -2.5
  },
  {
    "phase": "TASK",
    "condition": "Cond2",
    "trial_num": 71,
    "trial_length": 9,
    "click_num": 4,
    "RT": 784,
    "action": 1,
    "reward": -3.2
  },
  {
    "phase": "TASK",
    "condition": "Cond2",
    "trial_num": 71,
    "trial_length": 9,
    "click_num": 5,
    "RT": 808,
    "action": 1,
    "reward": -2.9
  },
  {
    "phase": "TASK",
    "condition": "Cond2",
    "trial_num": 71,
    "trial_length": 9,
    "click_num": 6,
    "RT": 816,
    "action": 1,
    "reward": -1.7
  },
  {
    "phase": "TASK",
    "condition": "Cond2",
    "trial_num": 71,
    "trial_length": 9,
    "click_num": 7,
    "RT": 1511,
    "action": 0,
    "reward": -1.7
  },
  {
    "phase": "TASK",
    "condition": "Cond2",
    "trial_num": 71,
    "trial_length": 9,
    "click_num": 8,
    "RT": 1432,
    "action": 0,
    "reward": -1.7
  },
  {
    "phase": "TASK",
    "condition": "Cond2",
    "trial_num": 71,
    "trial_length": 9,
    "click_num": 9,
    "RT": 841,
    "action": 0,
    "reward": -1.7
  },
  {
    "phase": "TASK",
    "condition": "Cond2",
    "trial_num": 72,
    "trial_length": 8,
    "click_num": 1,
    "RT": 926,
    "action": 1,
    "reward": -2.3
  },
  {
    "phase": "TASK",
    "condition": "Cond2",
    "trial_num": 72,
    "trial_length": 8,
    "click_num": 2,
    "RT": 954,
    "action": 1,
    "reward": -3.2
  },
  {
    "phase": "TASK",
    "condition": "Cond2",
    "trial_num": 72,
    "trial_length": 8,
    "click_num": 3,
    "RT": 870,
    "action": 1,
    "reward": -2.2
  },
  {
    "phase": "TASK",
    "condition": "Cond2",
    "trial_num": 72,
    "trial_length": 8,
    "click_num": 4,
    "RT": 937,
    "action": 1,
    "reward": -3.8
  },
  {
    "phase": "TASK",
    "condition": "Cond2",
    "trial_num": 72,
    "trial_length": 8,
    "click_num": 5,
    "RT": 936,
    "action": 1,
    "reward": -2.4
  },
  {
    "phase": "TASK",
    "condition": "Cond2",
    "trial_num": 72,
    "trial_length": 8,
    "click_num": 6,
    "RT": 1280,
    "action": 0,
    "reward": -2.2
  },
  {
    "phase": "TASK",
    "condition": "Cond2",
    "trial_num": 72,
    "trial_length": 8,
    "click_num": 7,
    "RT": 816,
    "action": 0,
    "reward": -2.2
  },
  {
    "phase": "TASK",
    "condition": "Cond2",
    "trial_num": 72,
    "trial_length": 8,
    "click_num": 8,
    "RT": 1048,
    "action": 0,
    "reward": -2.2
  },
  {
    "phase": "TASK",
    "condition": "Cond2",
    "trial_num": 73,
    "trial_length": 9,
    "click_num": 1,
    "RT": 1348,
    "action": 1,
    "reward": -2.5
  },
  {
    "phase": "TASK",
    "condition": "Cond2",
    "trial_num": 73,
    "trial_length": 9,
    "click_num": 2,
    "RT": 1031,
    "action": 1,
    "reward": -2.4
  },
  {
    "phase": "TASK",
    "condition": "Cond2",
    "trial_num": 73,
    "trial_length": 9,
    "click_num": 3,
    "RT": 1179,
    "action": 1,
    "reward": -2.9
  },
  {
    "phase": "TASK",
    "condition": "Cond2",
    "trial_num": 73,
    "trial_length": 9,
    "click_num": 4,
    "RT": 870,
    "action": 1,
    "reward": -3
  },
  {
    "phase": "TASK",
    "condition": "Cond2",
    "trial_num": 73,
    "trial_length": 9,
    "click_num": 5,
    "RT": 840,
    "action": 1,
    "reward": -4
  },
  {
    "phase": "TASK",
    "condition": "Cond2",
    "trial_num": 73,
    "trial_length": 9,
    "click_num": 6,
    "RT": 843,
    "action": 1,
    "reward": -3
  },
  {
    "phase": "TASK",
    "condition": "Cond2",
    "trial_num": 73,
    "trial_length": 9,
    "click_num": 7,
    "RT": 1421,
    "action": 0,
    "reward": -2.4
  },
  {
    "phase": "TASK",
    "condition": "Cond2",
    "trial_num": 73,
    "trial_length": 9,
    "click_num": 8,
    "RT": 2279,
    "action": 1,
    "reward": -3.4
  },
  {
    "phase": "TASK",
    "condition": "Cond2",
    "trial_num": 73,
    "trial_length": 9,
    "click_num": 9,
    "RT": 1216,
    "action": 0,
    "reward": -2.4
  },
  {
    "phase": "TASK",
    "condition": "Cond2",
    "trial_num": 74,
    "trial_length": 9,
    "click_num": 1,
    "RT": 1137,
    "action": 1,
    "reward": -2.9
  },
  {
    "phase": "TASK",
    "condition": "Cond2",
    "trial_num": 74,
    "trial_length": 9,
    "click_num": 2,
    "RT": 1196,
    "action": 1,
    "reward": -3
  },
  {
    "phase": "TASK",
    "condition": "Cond2",
    "trial_num": 74,
    "trial_length": 9,
    "click_num": 3,
    "RT": 985,
    "action": 1,
    "reward": -2.8
  },
  {
    "phase": "TASK",
    "condition": "Cond2",
    "trial_num": 74,
    "trial_length": 9,
    "click_num": 4,
    "RT": 850,
    "action": 1,
    "reward": -2.4
  },
  {
    "phase": "TASK",
    "condition": "Cond2",
    "trial_num": 74,
    "trial_length": 9,
    "click_num": 5,
    "RT": 981,
    "action": 0,
    "reward": -2.4
  },
  {
    "phase": "TASK",
    "condition": "Cond2",
    "trial_num": 74,
    "trial_length": 9,
    "click_num": 6,
    "RT": 874,
    "action": 0,
    "reward": -2.4
  },
  {
    "phase": "TASK",
    "condition": "Cond2",
    "trial_num": 74,
    "trial_length": 9,
    "click_num": 7,
    "RT": 831,
    "action": 0,
    "reward": -2.4
  },
  {
    "phase": "TASK",
    "condition": "Cond2",
    "trial_num": 74,
    "trial_length": 9,
    "click_num": 8,
    "RT": 840,
    "action": 0,
    "reward": -2.4
  },
  {
    "phase": "TASK",
    "condition": "Cond2",
    "trial_num": 74,
    "trial_length": 9,
    "click_num": 9,
    "RT": 1279,
    "action": 0,
    "reward": -2.4
  },
  {
    "phase": "TASK",
    "condition": "Cond2",
    "trial_num": 75,
    "trial_length": 10,
    "click_num": 1,
    "RT": 1222,
    "action": 1,
    "reward": -2.9
  },
  {
    "phase": "TASK",
    "condition": "Cond2",
    "trial_num": 75,
    "trial_length": 10,
    "click_num": 2,
    "RT": 989,
    "action": 1,
    "reward": -2.6
  },
  {
    "phase": "TASK",
    "condition": "Cond2",
    "trial_num": 75,
    "trial_length": 10,
    "click_num": 3,
    "RT": 1008,
    "action": 1,
    "reward": -3.6
  },
  {
    "phase": "TASK",
    "condition": "Cond2",
    "trial_num": 75,
    "trial_length": 10,
    "click_num": 4,
    "RT": 930,
    "action": 1,
    "reward": -2.5
  },
  {
    "phase": "TASK",
    "condition": "Cond2",
    "trial_num": 75,
    "trial_length": 10,
    "click_num": 5,
    "RT": 862,
    "action": 1,
    "reward": -2.2
  },
  {
    "phase": "TASK",
    "condition": "Cond2",
    "trial_num": 75,
    "trial_length": 10,
    "click_num": 6,
    "RT": 1217,
    "action": 1,
    "reward": -2.2
  },
  {
    "phase": "TASK",
    "condition": "Cond2",
    "trial_num": 75,
    "trial_length": 10,
    "click_num": 7,
    "RT": 992,
    "action": 1,
    "reward": -3.8
  },
  {
    "phase": "TASK",
    "condition": "Cond2",
    "trial_num": 75,
    "trial_length": 10,
    "click_num": 8,
    "RT": 848,
    "action": 1,
    "reward": -3.2
  },
  {
    "phase": "TASK",
    "condition": "Cond2",
    "trial_num": 75,
    "trial_length": 10,
    "click_num": 9,
    "RT": 866,
    "action": 1,
    "reward": -2.8
  },
  {
    "phase": "TASK",
    "condition": "Cond2",
    "trial_num": 75,
    "trial_length": 10,
    "click_num": 10,
    "RT": 797,
    "action": 1,
    "reward": -2.7
  },
  {
    "phase": "TASK",
    "condition": "Cond2",
    "trial_num": 76,
    "trial_length": 6,
    "click_num": 1,
    "RT": 1140,
    "action": 1,
    "reward": -2
  },
  {
    "phase": "TASK",
    "condition": "Cond2",
    "trial_num": 76,
    "trial_length": 6,
    "click_num": 2,
    "RT": 1271,
    "action": 1,
    "reward": -2.3
  },
  {
    "phase": "TASK",
    "condition": "Cond2",
    "trial_num": 76,
    "trial_length": 6,
    "click_num": 3,
    "RT": 935,
    "action": 1,
    "reward": -2.5
  },
  {
    "phase": "TASK",
    "condition": "Cond2",
    "trial_num": 76,
    "trial_length": 6,
    "click_num": 4,
    "RT": 937,
    "action": 1,
    "reward": -3.5
  },
  {
    "phase": "TASK",
    "condition": "Cond2",
    "trial_num": 76,
    "trial_length": 6,
    "click_num": 5,
    "RT": 865,
    "action": 1,
    "reward": -2.8
  },
  {
    "phase": "TASK",
    "condition": "Cond2",
    "trial_num": 76,
    "trial_length": 6,
    "click_num": 6,
    "RT": 904,
    "action": 1,
    "reward": -3.3
  },
  {
    "phase": "TASK",
    "condition": "Cond2",
    "trial_num": 77,
    "trial_length": 7,
    "click_num": 1,
    "RT": 994,
    "action": 1,
    "reward": -2.2
  },
  {
    "phase": "TASK",
