[
  {
    "phase": "TASK",
    "condition": "Cond2",
    "trial_num": 1,
    "trial_length": 7,
    "click_num": 1,
    "RT": 5736,
    "action": 1,
    "reward": -4
  },
  {
    "phase": "TASK",
    "condition": "Cond2",
    "trial_num": 1,
    "trial_length": 7,
    "click_num": 2,
    "RT": 7057,
    "action": 1,
    "reward": -2.5
  },
  {
    "phase": "TASK",
    "condition": "Cond2",
    "trial_num": 1,
    "trial_length": 7,
    "click_num": 3,
    "RT": 5568,
    "action": 1,
    "reward": -3
  },
  {
    "phase": "TASK",
    "condition": "Cond2",
    "trial_num": 1,
    "trial_length": 7,
    "click_num": 4,
    "RT": 3080,
    "action": 1,
    "reward": -2.7
  },
  {
    "phase": "TASK",
    "condition": "Cond2",
    "trial_num": 1,
    "trial_length": 7,
    "click_num": 5,
    "RT": 5720,
    "action": 1,
    "reward": -2.4
  },
  {
    "phase": "TASK",
    "condition": "Cond2",
    "trial_num": 1,
    "trial_length": 7,
    "click_num": 6,
    "RT": 5439,
    "action": 1,
    "reward": -2.5
  },
  {
    "phase": "TASK",
    "condition": "Cond2",
    "trial_num": 1,
    "trial_length": 7,
    "click_num": 7,
    "RT": 4562,
    "action": 0,
    "reward": -2.4
  },
  {
    "phase": "TASK",
    "condition": "Cond2",
    "trial_num": 2,
    "trial_length": 7,
    "click_num": 1,
    "RT": 4012,
    "action": 1,
    "reward": -3.7
  },
  {
    "phase": "TASK",
    "condition": "Cond2",
    "trial_num": 2,
    "trial_length": 7,
    "click_num": 2,
    "RT": 2817,
    "action": 1,
    "reward": -3.8
  },
  {
    "phase": "TASK",
    "condition": "Cond2",
    "trial_num": 2,
    "trial_length": 7,
    "click_num": 3,
    "RT": 2800,
    "action": 1,
    "reward": -2.8
  },
  {
    "phase": "TASK",
    "condition": "Cond2",
    "trial_num": 2,
    "trial_length": 7,
    "click_num": 4,
    "RT": 5000,
    "action": 1,
    "reward": -2.5
  },
  {
    "phase": "TASK",
    "condition": "Cond2",
    "trial_num": 2,
    "trial_length": 7,
    "click_num": 5,
    "RT": 2911,
    "action": 1,
    "reward": -3.1
  },
  {
    "phase": "TASK",
    "condition": "Cond2",
    "trial_num": 2,
    "trial_length": 7,
    "click_num": 6,
    "RT": 4545,
    "action": 0,
    "reward": -2.5
  },
  {
    "phase": "TASK",
    "condition": "Cond2",
    "trial_num": 2,
    "trial_length": 7,
    "click_num": 7,
    "RT": 2464,
    "action": 0,
    "reward": -2.5
  },
  {
    "phase": "TASK",
    "condition": "Cond2",
    "trial_num": 3,
    "trial_length": 9,
    "click_num": 1,
    "RT": 2192,
    "action": 1,
    "reward": -1.7
  },
  {
    "phase": "TASK",
    "condition": "Cond2",
    "trial_num": 3,
    "trial_length": 9,
    "click_num": 2,
    "RT": 5327,
    "action": 0,
    "reward": -1.7
  },
  {
    "phase": "TASK",
    "condition": "Cond2",
    "trial_num": 3,
    "trial_length": 9,
    "click_num": 3,
    "RT": 1128,
    "action": 0,
    "reward": -1.7
  },
  {
    "phase": "TASK",
    "condition": "Cond2",
    "trial_num": 3,
    "trial_length": 9,
    "click_num": 4,
    "RT": 896,
    "action": 0,
    "reward": -1.7
  },
  {
    "phase": "TASK",
    "condition": "Cond2",
    "trial_num": 3,
    "trial_length": 9,
    "click_num": 5,
    "RT": 953,
    "action": 0,
    "reward": -1.7
  },
  {
    "phase": "TASK",
    "condition": "Cond2",
    "trial_num": 3,
    "trial_length": 9,
    "click_num": 6,
    "RT": 991,
    "action": 0,
    "reward": -1.7
  },
  {
    "phase": "TASK",
    "condition": "Cond2",
    "trial_num": 3,
    "trial_length": 9,
    "click_num": 7,
    "RT": 880,
    "action": 0,
    "reward": -1.7
  },
  {
    "phase": "TASK",
    "condition": "Cond2",
    "trial_num": 3,
    "trial_length": 9,
    "click_num": 8,
    "RT": 969,
    "action": 0,
    "reward": -1.7
  },
  {
    "phase": "TASK",
    "condition": "Cond2",
    "trial_num": 3,
    "trial_length": 9,
    "click_num": 9,
    "RT": 983,
    "action": 0,
    "reward": -1.7
  },
  {
    "phase": "TASK",
    "condition": "Cond2",
    "trial_num": 4,
    "trial_length": 8,
    "click_num": 1,
    "RT": 2255,
    "action": 1,
    "reward": -3.2
  },
  {
    "phase": "TASK",
    "condition": "Cond2",
    "trial_num": 4,
    "trial_length": 8,
    "click_num": 2,
    "RT": 2400,
    "action": 1,
    "reward": -3.2
  },
  {
    "phase": "TASK",
    "condition": "Cond2",
    "trial_num": 4,
    "trial_length": 8,
    "click_num": 3,
    "RT": 1608,
    "action": 1,
    "reward": -1.9
  },
  {
    "phase": "TASK",
    "condition": "Cond2",
    "trial_num": 4,
    "trial_length": 8,
    "click_num": 4,
    "RT": 2008,
    "action": 0,
    "reward": -1.9
  },
  {
    "phase": "TASK",
    "condition": "Cond2",
    "trial_num": 4,
    "trial_length": 8,
    "click_num": 5,
    "RT": 928,
    "action": 0,
    "reward": -1.9
  },
  {
    "phase": "TASK",
    "condition": "Cond2",
    "trial_num": 4,
    "trial_length": 8,
    "click_num": 6,
    "RT": 1674,
    "action": 0,
    "reward": -1.9
  },
  {
    "phase": "TASK",
    "condition": "Cond2",
    "trial_num": 4,
    "trial_length": 8,
    "click_num": 7,
    "RT": 1143,
    "action": 0,
    "reward": -1.9
  },
  {
    "phase": "TASK",
    "condition": "Cond2",
    "trial_num": 4,
    "trial_length": 8,
    "click_num": 8,
    "RT": 943,
    "action": 0,
    "reward": -1.9
  },
  {
    "phase": "TASK",
    "condition": "Cond2",
    "trial_num": 5,
    "trial_length": 9,
    "click_num": 1,
    "RT": 1920,
    "action": 1,
    "reward": -3.5
  },
  {
    "phase": "TASK",
    "condition": "Cond2",
    "trial_num": 5,
    "trial_length": 9,
    "click_num": 2,
    "RT": 1414,
    "action": 1,
    "reward": -3.3
  },
  {
    "phase": "TASK",
    "condition": "Cond2",
    "trial_num": 5,
    "trial_length": 9,
    "click_num": 3,
    "RT": 1705,
    "action": 1,
    "reward": -3.2
  },
  {
    "phase": "TASK",
    "condition": "Cond2",
    "trial_num": 5,
    "trial_length": 9,
    "click_num": 4,
    "RT": 1656,
    "action": 1,
    "reward": -1.9
  },
  {
    "phase": "TASK",
    "condition": "Cond2",
    "trial_num": 5,
    "trial_length": 9,
    "click_num": 5,
    "RT": 2247,
    "action": 1,
    "reward": -3.5
  },
  {
    "phase": "TASK",
    "condition": "Cond2",
    "trial_num": 5,
    "trial_length": 9,
    "click_num": 6,
    "RT": 1307,
    "action": 0,
    "reward": -1.9
  },
  {
    "phase": "TASK",
    "condition": "Cond2",
    "trial_num": 5,
    "trial_length": 9,
    "click_num": 7,
    "RT": 967,
    "action": 0,
    "reward": -1.9
  },
  {
    "phase": "TASK",
    "condition": "Cond2",
    "trial_num": 5,
    "trial_length": 9,
    "click_num": 8,
    "RT": 950,
    "action": 0,
    "reward": -1.9
  },
  {
    "phase": "TASK",
    "condition": "Cond2",
    "trial_num": 5,
    "trial_length": 9,
    "click_num": 9,
    "RT": 968,
    "action": 0,
    "reward": -1.9
  },
  {
    "phase": "TASK",
    "condition": "Cond2",
    "trial_num": 6,
    "trial_length": 6,
    "click_num": 1,
    "RT": 1525,
    "action": 1,
    "reward": -3.1
  },
  {
    "phase": "TASK",
    "condition": "Cond2",
    "trial_num": 6,
    "trial_length": 6,
    "click_num": 2,
    "RT": 2265,
    "action": 1,
    "reward": -3
  },
  {
    "phase": "TASK",
    "condition": "Cond2",
    "trial_num": 6,
    "trial_length": 6,
    "click_num": 3,
    "RT": 2104,
    "action": 1,
    "reward": -2.4
  },
  {
    "phase": "TASK",
    "condition": "Cond2",
    "trial_num": 6,
    "trial_length": 6,
    "click_num": 4,
    "RT": 1591,
    "action": 1,
    "reward": -2.3
  },
  {
    "phase": "TASK",
    "condition": "Cond2",
    "trial_num": 6,
    "trial_length": 6,
    "click_num": 5,
    "RT": 1729,
    "action": 1,
    "reward": -4
  },
  {
    "phase": "TASK",
    "condition": "Cond2",
    "trial_num": 6,
    "trial_length": 6,
    "click_num": 6,
    "RT": 2440,
    "action": 1,
    "reward": -3.8
  },
  {
    "phase": "TASK",
    "condition": "Cond2",
    "trial_num": 7,
    "trial_length": 10,
    "click_num": 1,
    "RT": 1781,
    "action": 1,
    "reward": -2.7
  },
  {
    "phase": "TASK",
    "condition": "Cond2",
    "trial_num": 7,
    "trial_length": 10,
    "click_num": 2,
    "RT": 1850,
    "action": 1,
    "reward": -2.1
  },
  {
    "phase": "TASK",
    "condition": "Cond2",
    "trial_num": 7,
    "trial_length": 10,
    "click_num": 3,
    "RT": 2031,
    "action": 1,
    "reward": -3.5
  },
  {
    "phase": "TASK",
    "condition": "Cond2",
    "trial_num": 7,
    "trial_length": 10,
    "click_num": 4,
    "RT": 2273,
    "action": 1,
    "reward": -1.9
  },
  {
    "phase": "TASK",
    "condition": "Cond2",
    "trial_num": 7,
    "trial_length": 10,
    "click_num": 5,
    "RT": 1777,
    "action": 0,
    "reward": -1.9
  },
  {
    "phase": "TASK",
    "condition": "Cond2",
    "trial_num": 7,
    "trial_length": 10,
    "click_num": 6,
    "RT": 895,
    "action": 0,
    "reward": -1.9
  },
  {
    "phase": "TASK",
    "condition": "Cond2",
    "trial_num": 7,
    "trial_length": 10,
    "click_num": 7,
    "RT": 1128,
    "action": 0,
    "reward": -1.9
  },
  {
    "phase": "TASK",
    "condition": "Cond2",
    "trial_num": 7,
    "trial_length": 10,
    "click_num": 8,
    "RT": 824,
    "action": 0,
    "reward": -1.9
  },
  {
    "phase": "TASK",
    "condition": "Cond2",
    "trial_num": 7,
    "trial_length": 10,
    "click_num": 9,
    "RT": 881,
    "action": 0,
    "reward": -1.9
  },
  {
    "phase": "TASK",
    "condition": "Cond2",
    "trial_num": 7,
    "trial_length": 10,
    "click_num": 10,
    "RT": 983,
    "action": 0,
    "reward": -1.9
  },
  {
    "phase": "TASK",
    "condition": "Cond2",
    "trial_num": 8,
    "trial_length": 10,
    "click_num": 1,
    "RT": 1169,
    "action": 1,
    "reward": -1.9
  },
  {
    "phase": "TASK",
    "condition": "Cond2",
    "trial_num": 8,
    "trial_length": 10,
    "click_num": 2,
    "RT": 2359,
    "action": 1,
    "reward": -3
  },
  {
    "phase": "TASK",
    "condition": "Cond2",
    "trial_num": 8,
    "trial_length": 10,
    "click_num": 3,
    "RT": 1306,
    "action": 0,
    "reward": -1.9
  },
  {
    "phase": "TASK",
    "condition": "Cond2",
    "trial_num": 8,
    "trial_length": 10,
    "click_num": 4,
    "RT": 1271,
    "action": 0,
    "reward": -1.9
  },
  {
    "phase": "TASK",
    "condition": "Cond2",
    "trial_num": 8,
    "trial_length": 10,
    "click_num": 5,
    "RT": 927,
    "action": 0,
    "reward": -1.9
  },
  {
    "phase": "TASK",
    "condition": "Cond2",
    "trial_num": 8,
    "trial_length": 10,
    "click_num": 6,
    "RT": 1313,
    "action": 0,
    "reward": -1.9
  },
  {
    "phase": "TASK",
    "condition": "Cond2",
    "trial_num": 8,
    "trial_length": 10,
    "click_num": 7,
    "RT": 863,
    "action": 0,
    "reward": -1.9
  },
  {
    "phase": "TASK",
    "condition": "Cond2",
    "trial_num": 8,
    "trial_length": 10,
    "click_num": 8,
    "RT": 1139,
    "action": 0,
    "reward": -1.9
  },
  {
    "phase": "TASK",
    "condition": "Cond2",
    "trial_num": 8,
    "trial_length": 10,
    "click_num": 9,
    "RT": 1798,
    "action": 0,
    "reward": -1.9
  },
  {
    "phase": "TASK",
    "condition": "Cond2",
    "trial_num": 8,
    "trial_length": 10,
    "click_num": 10,
    "RT": 1072,
    "action": 0,
    "reward": -1.9
  },
  {
    "phase": "TASK",
    "condition": "Cond2",
    "trial_num": 9,
    "trial_length": 10,
    "click_num": 1,
    "RT": 2662,
    "action": 1,
    "reward": -3.3
  },
  {
    "phase": "TASK",
    "condition": "Cond2",
    "trial_num": 9,
    "trial_length": 10,
    "click_num": 2,
    "RT": 1903,
    "action": 1,
    "reward": -3.3
  },
  {
    "phase": "TASK",
    "condition": "Cond2",
    "trial_num": 9,
    "trial_length": 10,
    "click_num": 3,
    "RT": 2009,
    "action": 1,
    "reward": -2
  },
  {
    "phase": "TASK",
    "condition": "Cond2",
    "trial_num": 9,
    "trial_length": 10,
    "click_num": 4,
    "RT": 2039,
    "action": 1,
    "reward": -4.3
  },
  {
    "phase": "TASK",
    "condition": "Cond2",
    "trial_num": 9,
    "trial_length": 10,
    "click_num": 5,
    "RT": 1535,
    "action": 1,
    "reward": -2.8
  },
  {
    "phase": "TASK",
    "condition": "Cond2",
    "trial_num": 9,
    "trial_length": 10,
    "click_num": 6,
    "RT": 1609,
    "action": 1,
    "reward": -3.2
  },
  {
    "phase": "TASK",
    "condition": "Cond2",
    "trial_num": 9,
    "trial_length": 10,
    "click_num": 7,
    "RT": 1534,
    "action": 1,
    "reward": -3.3
  },
  {
    "phase": "TASK",
    "condition": "Cond2",
    "trial_num": 9,
    "trial_length": 10,
    "click_num": 8,
    "RT": 1275,
    "action": 0,
    "reward": -2
  },
  {
    "phase": "TASK",
    "condition": "Cond2",
    "trial_num": 9,
    "trial_length": 10,
    "click_num": 9,
    "RT": 831,
    "action": 0,
    "reward": -2
  },
  {
    "phase": "TASK",
    "condition": "Cond2",
    "trial_num": 9,
    "trial_length": 10,
    "click_num": 10,
    "RT": 1368,
    "action": 0,
    "reward": -2
  },
  {
    "phase": "TASK",
    "condition": "Cond2",
    "trial_num": 10,
    "trial_length": 9,
    "click_num": 1,
    "RT": 1594,
    "action": 1,
    "reward": -2.4
  },
  {
    "phase": "TASK",
    "condition": "Cond2",
    "trial_num": 10,
    "trial_length": 9,
    "click_num": 2,
    "RT": 2012,
    "action": 1,
    "reward": -2.7
  },
  {
    "phase": "TASK",
    "condition": "Cond2",
    "trial_num": 10,
    "trial_length": 9,
    "click_num": 3,
    "RT": 1104,
    "action": 1,
    "reward": -3.1
  },
  {
    "phase": "TASK",
    "condition": "Cond2",
    "trial_num": 10,
    "trial_length": 9,
    "click_num": 4,
    "RT": 1023,
    "action": 1,
    "reward": -3.2
  },
  {
    "phase": "TASK",
    "condition": "Cond2",
    "trial_num": 10,
    "trial_length": 9,
    "click_num": 5,
    "RT": 2472,
    "action": 1,
    "reward": -2.8
  },
  {
    "phase": "TASK",
    "condition": "Cond2",
    "trial_num": 10,
    "trial_length": 9,
    "click_num": 6,
    "RT": 1800,
    "action": 1,
    "reward": -2.8
  },
  {
    "phase": "TASK",
    "condition": "Cond2",
    "trial_num": 10,
    "trial_length": 9,
    "click_num": 7,
    "RT": 1776,
    "action": 1,
    "reward": -1.2
  },
  {
    "phase": "TASK",
    "condition": "Cond2",
    "trial_num": 10,
    "trial_length": 9,
    "click_num": 8,
    "RT": 1792,
    "action": 0,
    "reward": -1.2
  },
  {
    "phase": "TASK",
    "condition": "Cond2",
    "trial_num": 10,
    "trial_length": 9,
    "click_num": 9,
    "RT": 912,
    "action": 0,
    "reward": -1.2
  },
  {
    "phase": "TASK",
    "condition": "Cond2",
    "trial_num": 11,
    "trial_length": 5,
    "click_num": 1,
    "RT": 2567,
    "action": 1,
    "reward": -3.8
  },
  {
    "phase": "TASK",
    "condition": "Cond2",
    "trial_num": 11,
    "trial_length": 5,
    "click_num": 2,
    "RT": 2016,
    "action": 1,
    "reward": -3
  },
  {
    "phase": "TASK",
    "condition": "Cond2",
    "trial_num": 11,
    "trial_length": 5,
    "click_num": 3,
    "RT": 1160,
    "action": 1,
    "reward": -3.6
  },
  {
    "phase": "TASK",
    "condition": "Cond2",
    "trial_num": 11,
    "trial_length": 5,
    "click_num": 4,
    "RT": 1312,
    "action": 1,
    "reward": -3.7
  },
  {
    "phase": "TASK",
    "condition": "Cond2",
    "trial_num": 11,
    "trial_length": 5,
    "click_num": 5,
    "RT": 1472,
    "action": 1,
    "reward": -3.3
  },
  {
    "phase": "TASK",
    "condition": "Cond2",
    "trial_num": 12,
    "trial_length": 9,
    "click_num": 1,
    "RT": 1145,
    "action": 1,
    "reward": -3.4
  },
  {
    "phase": "TASK",
    "condition": "Cond2",
    "trial_num": 12,
    "trial_length": 9,
    "click_num": 2,
    "RT": 2080,
    "action": 1,
    "reward": -2.3
  },
  {
    "phase": "TASK",
    "condition": "Cond2",
    "trial_num": 12,
    "trial_length": 9,
    "click_num": 3,
    "RT": 2112,
    "action": 1,
    "reward": -4.1
  },
  {
    "phase": "TASK",
    "condition": "Cond2",
    "trial_num": 12,
    "trial_length": 9,
    "click_num": 4,
    "RT": 1376,
    "action": 1,
    "reward": -2.5
  },
  {
    "phase": "TASK",
    "condition": "Cond2",
    "trial_num": 12,
    "trial_length": 9,
    "click_num": 5,
    "RT": 1457,
    "action": 1,
    "reward": -2.9
  },
  {
    "phase": "TASK",
    "condition": "Cond2",
    "trial_num": 12,
    "trial_length": 9,
    "click_num": 6,
    "RT": 1583,
    "action": 0,
    "reward": -2.3
  },
  {
    "phase": "TASK",
    "condition": "Cond2",
    "trial_num": 12,
    "trial_length": 9,
    "click_num": 7,
    "RT": 840,
    "action": 0,
    "reward": -2.3
  },
  {
    "phase": "TASK",
    "condition": "Cond2",
    "trial_num": 12,
    "trial_length": 9,
    "click_num": 8,
    "RT": 1431,
    "action": 0,
    "reward": -2.3
  },
  {
    "phase": "TASK",
    "condition": "Cond2",
    "trial_num": 12,
    "trial_length": 9,
    "click_num": 9,
    "RT": 1059,
    "action": 0,
    "reward": -2.3
  },
  {
    "phase": "TASK",
    "condition": "Cond2",
    "trial_num": 13,
    "trial_length": 5,
    "click_num": 1,
    "RT": 1122,
    "action": 1,
    "reward": -2.2
  },
  {
    "phase": "TASK",
    "condition": "Cond2",
    "trial_num": 13,
    "trial_length": 5,
    "click_num": 2,
    "RT": 1567,
    "action": 1,
    "reward": -2.9
  },
  {
    "phase": "TASK",
    "condition": "Cond2",
    "trial_num": 13,
    "trial_length": 5,
    "click_num": 3,
    "RT": 1504,
    "action": 1,
    "reward": -3.9
  },
  {
    "phase": "TASK",
    "condition": "Cond2",
    "trial_num": 13,
    "trial_length": 5,
    "click_num": 4,
    "RT": 1224,
    "action": 1,
    "reward": -3.4
  },
  {
    "phase": "TASK",
    "condition": "Cond2",
    "trial_num": 13,
    "trial_length": 5,
    "click_num": 5,
    "RT": 2745,
    "action": 0,
    "reward": -2.2
  },
  {
    "phase": "TASK",
    "condition": "Cond2",
    "trial_num": 14,
    "trial_length": 6,
    "click_num": 1,
    "RT": 1702,
    "action": 1,
    "reward": -2.2
  },
  {
    "phase": "TASK",
    "condition": "Cond2",
    "trial_num": 14,
    "trial_length": 6,
    "click_num": 2,
    "RT": 2880,
    "action": 1,
    "reward": -3.8
  },
  {
    "phase": "TASK",
    "condition": "Cond2",
    "trial_num": 14,
    "trial_length": 6,
    "click_num": 3,
    "RT": 1327,
    "action": 1,
    "reward": -3.4
  },
  {
    "phase": "TASK",
    "condition": "Cond2",
    "trial_num": 14,
    "trial_length": 6,
    "click_num": 4,
    "RT": 2721,
    "action": 1,
    "reward": -1.7
  },
  {
    "phase": "TASK",
    "condition": "Cond2",
    "trial_num": 14,
    "trial_length": 6,
    "click_num": 5,
    "RT": 1384,
    "action": 0,
    "reward": -1.7
  },
  {
    "phase": "TASK",
    "condition": "Cond2",
    "trial_num": 14,
    "trial_length": 6,
    "click_num": 6,
    "RT": 960,
    "action": 0,
    "reward": -1.7
  },
  {
    "phase": "TASK",
    "condition": "Cond2",
    "trial_num": 15,
    "trial_length": 9,
    "click_num": 1,
    "RT": 1104,
    "action": 1,
    "reward": -3
  },
  {
    "phase": "TASK",
    "condition": "Cond2",
    "trial_num": 15,
    "trial_length": 9,
    "click_num": 2,
    "RT": 1951,
    "action": 1,
    "reward": -2.3
  },
  {
    "phase": "TASK",
    "condition": "Cond2",
    "trial_num": 15,
    "trial_length": 9,
    "click_num": 3,
    "RT": 1537,
    "action": 1,
    "reward": -1.8
  },
  {
    "phase": "TASK",
    "condition": "Cond2",
    "trial_num": 15,
    "trial_length": 9,
    "click_num": 4,
    "RT": 1423,
    "action": 0,
    "reward": -1.8
  },
  {
    "phase": "TASK",
    "condition": "Cond2",
    "trial_num": 15,
    "trial_length": 9,
    "click_num": 5,
    "RT": 976,
    "action": 0,
    "reward": -1.8
  },
  {
    "phase": "TASK",
    "condition": "Cond2",
    "trial_num": 15,
    "trial_length": 9,
    "click_num": 6,
    "RT": 1096,
    "action": 0,
    "reward": -1.8
  },
  {
    "phase": "TASK",
    "condition": "Cond2",
    "trial_num": 15,
    "trial_length": 9,
    "click_num": 7,
    "RT": 811,
    "action": 0,
    "reward": -1.8
  },
  {
    "phase": "TASK",
    "condition": "Cond2",
    "trial_num": 15,
    "trial_length": 9,
    "click_num": 8,
    "RT": 1125,
    "action": 0,
    "reward": -1.8
  },
  {
    "phase": "TASK",
    "condition": "Cond2",
    "trial_num": 15,
    "trial_length": 9,
    "click_num": 9,
    "RT": 872,
    "action": 0,
    "reward": -1.8
  },
  {
    "phase": "TASK",
    "condition": "Cond2",
    "trial_num": 16,
    "trial_length": 7,
    "click_num": 1,
    "RT": 1359,
    "action": 1,
    "reward": -3.3
  },
  {
    "phase": "TASK",
    "condition": "Cond2",
    "trial_num": 16,
    "trial_length": 7,
    "click_num": 2,
    "RT": 2920,
    "action": 1,
    "reward": -2.9
  },
  {
    "phase": "TASK",
    "condition": "Cond2",
    "trial_num": 16,
    "trial_length": 7,
    "click_num": 3,
    "RT": 1120,
    "action": 1,
    "reward": -1.6
  },
  {
    "phase": "TASK",
    "condition": "Cond2",
    "trial_num": 16,
    "trial_length": 7,
    "click_num": 4,
    "RT": 1472,
    "action": 0,
    "reward": -1.6
  },
  {
    "phase": "TASK",
    "condition": "Cond2",
    "trial_num": 16,
    "trial_length": 7,
    "click_num": 5,
    "RT": 984,
    "action": 0,
    "reward": -1.6
  },
  {
    "phase": "TASK",
    "condition": "Cond2",
    "trial_num": 16,
    "trial_length": 7,
    "click_num": 6,
    "RT": 848,
    "action": 0,
    "reward": -1.6
  },
  {
    "phase": "TASK",
    "condition": "Cond2",
    "trial_num": 16,
    "trial_length": 7,
    "click_num": 7,
    "RT": 864,
    "action": 0,
    "reward": -1.6
  },
  {
    "phase": "TASK",
    "condition": "Cond2",
    "trial_num": 17,
    "trial_length": 5,
    "click_num": 1,
    "RT": 1224,
    "action": 1,
    "reward": -2.2
  },
  {
    "phase": "TASK",
    "condition": "Cond2",
    "trial_num": 17,
    "trial_length": 5,
    "click_num": 2,
    "RT": 1672,
    "action": 1,
    "reward": -3.7
  },
  {
    "phase": "TASK",
    "condition": "Cond2",
    "trial_num": 17,
    "trial_length": 5,
    "click_num": 3,
    "RT": 1736,
    "action": 1,
    "reward": -2.4
  },
  {
    "phase": "TASK",
    "condition": "Cond2",
    "trial_num": 17,
    "trial_length": 5,
    "click_num": 4,
    "RT": 3512,
    "action": 0,
    "reward": -2.2
  },
  {
    "phase": "TASK",
    "condition": "Cond2",
    "trial_num": 17,
    "trial_length": 5,
    "click_num": 5,
    "RT": 1192,
    "action": 0,
    "reward": -2.2
  },
  {
    "phase": "TASK",
    "condition": "Cond2",
    "trial_num": 18,
    "trial_length": 7,
    "click_num": 1,
    "RT": 1583,
    "action": 1,
    "reward": -3
  },
  {
    "phase": "TASK",
    "condition": "Cond2",
    "trial_num": 18,
    "trial_length": 7,
    "click_num": 2,
    "RT": 1639,
    "action": 1,
    "reward": -2
  },
  {
    "phase": "TASK",
    "condition": "Cond2",
    "trial_num": 18,
    "trial_length": 7,
    "click_num": 3,
    "RT": 2272,
    "action": 1,
    "reward": -3.2
  },
  {
    "phase": "TASK",
    "condition": "Cond2",
    "trial_num": 18,
    "trial_length": 7,
    "click_num": 4,
    "RT": 1751,
    "action": 0,
    "reward": -2
  },
  {
    "phase": "TASK",
    "condition": "Cond2",
    "trial_num": 18,
    "trial_length": 7,
    "click_num": 5,
    "RT": 1324,
    "action": 1,
    "reward": -2.9
  },
  {
    "phase": "TASK",
    "condition": "Cond2",
    "trial_num": 18,
    "trial_length": 7,
    "click_num": 6,
    "RT": 2124,
    "action": 0,
    "reward": -2
  },
  {
    "phase": "TASK",
    "condition": "Cond2",
    "trial_num": 18,
    "trial_length": 7,
    "click_num": 7,
    "RT": 1089,
    "action": 0,
    "reward": -2
  },
  {
    "phase": "TASK",
    "condition": "Cond2",
    "trial_num": 19,
    "trial_length": 9,
    "click_num": 1,
    "RT": 1101,
    "action": 1,
    "reward": -3.9
  },
  {
    "phase": "TASK",
    "condition": "Cond2",
    "trial_num": 19,
    "trial_length": 9,
    "click_num": 2,
    "RT": 1799,
    "action": 1,
    "reward": -3.5
  },
  {
    "phase": "TASK",
    "condition": "Cond2",
    "trial_num": 19,
    "trial_length": 9,
    "click_num": 3,
    "RT": 1161,
    "action": 1,
    "reward": -3.3
  },
  {
    "phase": "TASK",
    "condition": "Cond2",
    "trial_num": 19,
    "trial_length": 9,
    "click_num": 4,
    "RT": 1974,
    "action": 1,
    "reward": -3.2
  },
  {
    "phase": "TASK",
    "condition": "Cond2",
    "trial_num": 19,
    "trial_length": 9,
    "click_num": 5,
    "RT": 1634,
    "action": 1,
    "reward": -3.8
  },
  {
    "phase": "TASK",
    "condition": "Cond2",
    "trial_num": 19,
    "trial_length": 9,
    "click_num": 6,
    "RT": 2096,
    "action": 1,
    "reward": -3.1
  },
  {
    "phase": "TASK",
    "condition": "Cond2",
    "trial_num": 19,
    "trial_length": 9,
    "click_num": 7,
    "RT": 1800,
    "action": 1,
    "reward": -2.9
  },
  {
    "phase": "TASK",
    "condition": "Cond2",
    "trial_num": 19,
    "trial_length": 9,
    "click_num": 8,
    "RT": 1472,
    "action": 1,
    "reward": -2.8
  },
  {
    "phase": "TASK",
    "condition": "Cond2",
    "trial_num": 19,
    "trial_length": 9,
    "click_num": 9,
    "RT": 1631,
    "action": 1,
    "reward": -3.3
  },
  {
    "phase": "TASK",
    "condition": "Cond2",
    "trial_num": 20,
    "trial_length": 7,
    "click_num": 1,
    "RT": 1385,
    "action": 1,
    "reward": -2.5
  },
  {
    "phase": "TASK",
    "condition": "Cond2",
    "trial_num": 20,
    "trial_length": 7,
    "click_num": 2,
    "RT": 1616,
    "action": 1,
    "reward": -3.7
  },
  {
    "phase": "TASK",
    "condition": "Cond2",
    "trial_num": 20,
    "trial_length": 7,
    "click_num": 3,
    "RT": 1684,
    "action": 1,
    "reward": -3.1
  },
  {
    "phase": "TASK",
    "condition": "Cond2",
    "trial_num": 20,
    "trial_length": 7,
    "click_num": 4,
    "RT": 1541,
    "action": 1,
    "reward": -3.5
  },
  {
    "phase": "TASK",
    "condition": "Cond2",
    "trial_num": 20,
    "trial_length": 7,
    "click_num": 5,
    "RT": 2431,
    "action": 0,
    "reward": -2.5
  },
  {
    "phase": "TASK",
    "condition": "Cond2",
    "trial_num": 20,
    "trial_length": 7,
    "click_num": 6,
    "RT": 1249,
    "action": 1,
    "reward": -2.1
  },
  {
    "phase": "TASK",
    "condition": "Cond2",
    "trial_num": 20,
    "trial_length": 7,
    "click_num": 7,
    "RT": 1912,
    "action": 0,
    "reward": -2.1
  },
  {
    "phase": "TASK",
    "condition": "Cond2",
    "trial_num": 21,
    "trial_length": 8,
    "click_num": 1,
    "RT": 1607,
    "action": 1,
    "reward": -2.8
  },
  {
    "phase": "TASK",
    "condition": "Cond2",
    "trial_num": 21,
    "trial_length": 8,
    "click_num": 2,
    "RT": 1846,
    "action": 1,
    "reward": -1.6
  },
  {
    "phase": "TASK",
    "condition": "Cond2",
    "trial_num": 21,
    "trial_length": 8,
    "click_num": 3,
    "RT": 1491,
    "action": 0,
    "reward": -1.6
  },
  {
    "phase": "TASK",
    "condition": "Cond2",
    "trial_num": 21,
    "trial_length": 8,
    "click_num": 4,
    "RT": 934,
    "action": 0,
    "reward": -1.6
  },
  {
    "phase": "TASK",
    "condition": "Cond2",
    "trial_num": 21,
    "trial_length": 8,
    "click_num": 5,
    "RT": 880,
    "action": 0,
    "reward": -1.6
  },
  {
    "phase": "TASK",
    "condition": "Cond2",
    "trial_num": 21,
    "trial_length": 8,
    "click_num": 6,
    "RT": 968,
    "action": 0,
    "reward": -1.6
  },
  {
    "phase": "TASK",
    "condition": "Cond2",
    "trial_num": 21,
    "trial_length": 8,
    "click_num": 7,
    "RT": 807,
    "action": 0,
    "reward": -1.6
  },
  {
    "phase": "TASK",
    "condition": "Cond2",
    "trial_num": 21,
    "trial_length": 8,
    "click_num": 8,
    "RT": 967,
    "action": 0,
    "reward": -1.6
  },
  {
    "phase": "TASK",
    "condition": "Cond2",
    "trial_num": 22,
    "trial_length": 5,
    "click_num": 1,
    "RT": 2049,
    "action": 1,
    "reward": -2.2
  },
  {
    "phase": "TASK",
    "condition": "Cond2",
    "trial_num": 22,
    "trial_length": 5,
    "click_num": 2,
    "RT": 1959,
    "action": 1,
    "reward": -2.2
  },
  {
    "phase": "TASK",
    "condition": "Cond2",
    "trial_num": 22,
    "trial_length": 5,
    "click_num": 3,
    "RT": 1832,
    "action": 1,
    "reward": -2.9
  },
  {
    "phase": "TASK",
    "condition": "Cond2",
    "trial_num": 22,
    "trial_length": 5,
    "click_num": 4,
    "RT": 1712,
    "action": 0,
    "reward": -2.2
  },
  {
    "phase": "TASK",
    "condition": "Cond2",
    "trial_num": 22,
    "trial_length": 5,
    "click_num": 5,
    "RT": 1472,
    "action": 1,
    "reward": -3.5
  },
  {
    "phase": "TASK",
    "condition": "Cond2",
    "trial_num": 23,
    "trial_length": 7,
    "click_num": 1,
    "RT": 1440,
    "action": 1,
    "reward": -2.7
  },
  {
    "phase": "TASK",
    "condition": "Cond2",
    "trial_num": 23,
    "trial_length": 7,
    "click_num": 2,
    "RT": 1520,
    "action": 1,
    "reward": -2.9
  },
  {
    "phase": "TASK",
    "condition": "Cond2",
    "trial_num": 23,
    "trial_length": 7,
    "click_num": 3,
    "RT": 1224,
    "action": 1,
    "reward": -1.6
  },
  {
    "phase": "TASK",
    "condition": "Cond2",
    "trial_num": 23,
    "trial_length": 7,
    "click_num": 4,
    "RT": 1494,
    "action": 0,
    "reward": -1.6
  },
  {
    "phase": "TASK",
    "condition": "Cond2",
    "trial_num": 23,
    "trial_length": 7,
    "click_num": 5,
    "RT": 1026,
    "action": 0,
    "reward": -1.6
  },
  {
    "phase": "TASK",
    "condition": "Cond2",
    "trial_num": 23,
    "trial_length": 7,
    "click_num": 6,
    "RT": 1007,
    "action": 0,
    "reward": -1.6
  },
  {
    "phase": "TASK",
    "condition": "Cond2",
    "trial_num": 23,
    "trial_length": 7,
    "click_num": 7,
    "RT": 881,
    "action": 0,
    "reward": -1.6
  },
  {
    "phase": "TASK",
    "condition": "Cond2",
    "trial_num": 24,
    "trial_length": 6,
    "click_num": 1,
    "RT": 1207,
    "action": 1,
    "reward": -2.6
  },
  {
    "phase": "TASK",
    "condition": "Cond2",
    "trial_num": 24,
    "trial_length": 6,
    "click_num": 2,
    "RT": 1664,
    "action": 1,
    "reward": -2.3
  },
  {
    "phase": "TASK",
    "condition": "Cond2",
    "trial_num": 24,
    "trial_length": 6,
    "click_num": 3,
    "RT": 1169,
    "action": 1,
    "reward": -2.8
  },
  {
    "phase": "TASK",
    "condition": "Cond2",
    "trial_num": 24,
    "trial_length": 6,
    "click_num": 4,
    "RT": 1374,
    "action": 1,
    "reward": -3.1
  },
  {
    "phase": "TASK",
    "condition": "Cond2",
    "trial_num": 24,
    "trial_length": 6,
    "click_num": 5,
    "RT": 1897,
    "action": 0,
    "reward": -2.3
  },
  {
    "phase": "TASK",
    "condition": "Cond2",
    "trial_num": 24,
    "trial_length": 6,
    "click_num": 6,
    "RT": 840,
    "action": 0,
    "reward": -2.3
  },
  {
    "phase": "TASK",
    "condition": "Cond2",
    "trial_num": 25,
    "trial_length": 8,
    "click_num": 1,
    "RT": 1263,
    "action": 1,
    "reward": -2.9
  },
  {
    "phase": "TASK",
    "condition": "Cond2",
    "trial_num": 25,
    "trial_length": 8,
    "click_num": 2,
    "RT": 1256,
    "action": 1,
    "reward": -2.2
  },
  {
    "phase": "TASK",
    "condition": "Cond2",
    "trial_num": 25,
    "trial_length": 8,
    "click_num": 3,
    "RT": 1935,
    "action": 1,
    "reward": -2.6
  },
  {
    "phase": "TASK",
    "condition": "Cond2",
    "trial_num": 25,
    "trial_length": 8,
    "click_num": 4,
    "RT": 1408,
    "action": 1,
    "reward": -2.1
  },
  {
    "phase": "TASK",
    "condition": "Cond2",
    "trial_num": 25,
    "trial_length": 8,
    "click_num": 5,
    "RT": 1780,
    "action": 0,
    "reward": -2.1
  },
  {
    "phase": "TASK",
    "condition": "Cond2",
    "trial_num": 25,
    "trial_length": 8,
    "click_num": 6,
    "RT": 773,
    "action": 0,
    "reward": -2.1
  },
  {
    "phase": "TASK",
    "condition": "Cond2",
    "trial_num": 25,
    "trial_length": 8,
    "click_num": 7,
    "RT": 1024,
    "action": 0,
    "reward": -2.1
  },
  {
    "phase": "TASK",
    "condition": "Cond2",
    "trial_num": 25,
    "trial_length": 8,
    "click_num": 8,
    "RT": 815,
    "action": 0,
    "reward": -2.1
  },
  {
    "phase": "TASK",
    "condition": "Cond2",
    "trial_num": 26,
    "trial_length": 7,
    "click_num": 1,
    "RT": 1339,
    "action": 1,
    "reward": -3.8
  },
  {
    "phase": "TASK",
    "condition": "Cond2",
    "trial_num": 26,
    "trial_length": 7,
    "click_num": 2,
    "RT": 1640,
    "action": 1,
    "reward": -3.7
  },
  {
    "phase": "TASK",
    "condition": "Cond2",
    "trial_num": 26,
    "trial_length": 7,
    "click_num": 3,
    "RT": 937,
    "action": 1,
    "reward": -2.4
  },
  {
    "phase": "TASK",
    "condition": "Cond2",
    "trial_num": 26,
    "trial_length": 7,
    "click_num": 4,
    "RT": 2279,
    "action": 1,
    "reward": -3.2
  },
  {
    "phase": "TASK",
    "condition": "Cond2",
    "trial_num": 26,
    "trial_length": 7,
    "click_num": 5,
    "RT": 1818,
    "action": 1,
    "reward": -2.8
  },
  {
    "phase": "TASK",
    "condition": "Cond2",
    "trial_num": 26,
    "trial_length": 7,
    "click_num": 6,
    "RT": 1927,
    "action": 0,
    "reward": -2.4
  },
  {
    "phase": "TASK",
    "condition": "Cond2",
    "trial_num": 26,
    "trial_length": 7,
    "click_num": 7,
    "RT": 1935,
    "action": 0,
    "reward": -2.4
  },
  {
    "phase": "TASK",
    "condition": "Cond2",
    "trial_num": 27,
    "trial_length": 5,
    "click_num": 1,
    "RT": 1293,
    "action": 1,
    "reward": -2.8
  },
  {
    "phase": "TASK",
    "condition": "Cond2",
    "trial_num": 27,
    "trial_length": 5,
    "click_num": 2,
    "RT": 2784,
    "action": 1,
    "reward": -2.4
  },
  {
    "phase": "TASK",
    "condition": "Cond2",
    "trial_num": 27,
    "trial_length": 5,
    "click_num": 3,
    "RT": 1657,
    "action": 1,
    "reward": -2.6
  },
  {
    "phase": "TASK",
    "condition": "Cond2",
    "trial_num": 27,
    "trial_length": 5,
    "click_num": 4,
    "RT": 1039,
    "action": 1,
    "reward": -3.2
  },
  {
    "phase": "TASK",
    "condition": "Cond2",
    "trial_num": 27,
    "trial_length": 5,
    "click_num": 5,
    "RT": 1105,
    "action": 1,
    "reward": -2.9
  },
  {
    "phase": "TASK",
    "condition": "Cond2",
    "trial_num": 28,
    "trial_length": 6,
    "click_num": 1,
    "RT": 1151,
    "action": 1,
    "reward": -3.8
  },
  {
    "phase": "TASK",
    "condition": "Cond2",
    "trial_num": 28,
    "trial_length": 6,
    "click_num": 2,
    "RT": 1431,
    "action": 1,
    "reward": -3.1
  },
  {
    "phase": "TASK",
    "condition": "Cond2",
    "trial_num": 28,
    "trial_length": 6,
    "click_num": 3,
    "RT": 1208,
    "action": 1,
    "reward": -3.4
  },
  {
    "phase": "TASK",
    "condition": "Cond2",
    "trial_num": 28,
    "trial_length": 6,
    "click_num": 4,
    "RT": 1903,
    "action": 1,
    "reward": -3.2
  },
  {
    "phase": "TASK",
    "condition": "Cond2",
    "trial_num": 28,
    "trial_length": 6,
    "click_num": 5,
    "RT": 1530,
    "action": 1,
    "reward": -2.6
  },
  {
    "phase": "TASK",
    "condition": "Cond2",
    "trial_num": 28,
    "trial_length": 6,
    "click_num": 6,
    "RT": 1975,
    "action": 0,
    "reward": -2.6
  },
  {
    "phase": "TASK",
    "condition": "Cond2",
    "trial_num": 29,
    "trial_length": 9,
    "click_num": 1,
    "RT": 1454,
    "action": 1,
    "reward": -3.7
  },
  {
    "phase": "TASK",
    "condition": "Cond2",
    "trial_num": 29,
    "trial_length": 9,
    "click_num": 2,
    "RT": 1440,
    "action": 1,
    "reward": -3.7
  },
  {
    "phase": "TASK",
    "condition": "Cond2",
    "trial_num": 29,
    "trial_length": 9,
    "click_num": 3,
    "RT": 1559,
    "action": 1,
    "reward": -2.7
  },
  {
    "phase": "TASK",
    "condition": "Cond2",
    "trial_num": 29,
    "trial_length": 9,
    "click_num": 4,
    "RT": 1417,
    "action": 1,
    "reward": -2.4
  },
  {
    "phase": "TASK",
    "condition": "Cond2",
    "trial_num": 29,
    "trial_length": 9,
    "click_num": 5,
    "RT": 1511,
    "action": 1,
    "reward": -3.5
  },
  {
    "phase": "TASK",
    "condition": "Cond2",
    "trial_num": 29,
    "trial_length": 9,
    "click_num": 6,
    "RT": 1505,
    "action": 0,
    "reward": -2.4
  },
  {
    "phase": "TASK",
    "condition": "Cond2",
    "trial_num": 29,
    "trial_length": 9,
    "click_num": 7,
    "RT": 1215,
    "action": 0,
    "reward": -2.4
  },
  {
    "phase": "TASK",
    "condition": "Cond2",
    "trial_num": 29,
    "trial_length": 9,
    "click_num": 8,
    "RT": 1577,
    "action": 1,
    "reward": -3.3
  },
  {
    "phase": "TASK",
    "condition": "Cond2",
    "trial_num": 29,
    "trial_length": 9,
    "click_num": 9,
    "RT": 1648,
    "action": 0,
    "reward": -2.4
  },
  {
    "phase": "TASK",
    "condition": "Cond2",
    "trial_num": 30,
    "trial_length": 5,
    "click_num": 1,
    "RT": 1278,
    "action": 1,
    "reward": -3.2
  },
  {
    "phase": "TASK",
    "condition": "Cond2",
    "trial_num": 30,
    "trial_length": 5,
    "click_num": 2,
    "RT": 1561,
    "action": 1,
    "reward": -2.7
  },
  {
    "phase": "TASK",
    "condition": "Cond2",
    "trial_num": 30,
    "trial_length": 5,
    "click_num": 3,
    "RT": 1351,
    "action": 1,
    "reward": -2.6
  },
  {
    "phase": "TASK",
    "condition": "Cond2",
    "trial_num": 30,
    "trial_length": 5,
    "click_num": 4,
    "RT": 1366,
    "action": 1,
    "reward": -2.8
  },
  {
    "phase": "TASK",
    "condition": "Cond2",
    "trial_num": 30,
    "trial_length": 5,
    "click_num": 5,
    "RT": 2433,
    "action": 0,
    "reward": -2.6
  },
  {
    "phase": "TASK",
    "condition": "Cond2",
    "trial_num": 31,
    "trial_length": 10,
    "click_num": 1,
    "RT": 1879,
    "action": 1,
    "reward": -3.6
  },
  {
    "phase": "TASK",
    "condition": "Cond2",
    "trial_num": 31,
    "trial_length": 10,
    "click_num": 2,
    "RT": 1614,
    "action": 1,
    "reward": -2
  },
  {
    "phase": "TASK",
    "condition": "Cond2",
    "trial_num": 31,
    "trial_length": 10,
    "click_num": 3,
    "RT": 1784,
    "action": 1,
    "reward": -4.4
  },
  {
    "phase": "TASK",
    "condition": "Cond2",
    "trial_num": 31,
    "trial_length": 10,
    "click_num": 4,
    "RT": 1768,
    "action": 1,
    "reward": -2.8
  },
  {
    "phase": "TASK",
    "condition": "Cond2",
    "trial_num": 31,
    "trial_length": 10,
    "click_num": 5,
    "RT": 2560,
    "action": 0,
    "reward": -2
  },
  {
    "phase": "TASK",
    "condition": "Cond2",
    "trial_num": 31,
    "trial_length": 10,
    "click_num": 6,
    "RT": 1024,
    "action": 0,
    "reward": -2
  },
  {
    "phase": "TASK",
    "condition": "Cond2",
    "trial_num": 31,
    "trial_length": 10,
    "click_num": 7,
    "RT": 808,
    "action": 0,
    "reward": -2
  },
  {
    "phase": "TASK",
    "condition": "Cond2",
    "trial_num": 31,
    "trial_length": 10,
    "click_num": 8,
    "RT": 776,
    "action": 0,
    "reward": -2
  },
  {
    "phase": "TASK",
    "condition": "Cond2",
    "trial_num": 31,
    "trial_length": 10,
    "click_num": 9,
    "RT": 815,
    "action": 0,
    "reward": -2
  },
  {
    "phase": "TASK",
    "condition": "Cond2",
    "trial_num": 31,
    "trial_length": 10,
    "click_num": 10,
    "RT": 825,
    "action": 0,
    "reward": -2
  },
  {
    "phase": "TASK",
    "condition": "Cond2",
    "trial_num": 32,
    "trial_length": 8,
    "click_num": 1,
    "RT": 1088,
    "action": 1,
    "reward": -2.5
  },
  {
    "phase": "TASK",
    "condition": "Cond2",
    "trial_num": 32,
    "trial_length": 8,
    "click_num": 2,
    "RT": 1888,
    "action": 1,
    "reward": -3.3
  },
  {
    "phase": "TASK",
    "condition": "Cond2",
    "trial_num": 32,
    "trial_length": 8,
    "click_num": 3,
    "RT": 1272,
    "action": 1,
    "reward": -2.7
  },
  {
    "phase": "TASK",
    "condition": "Cond2",
    "trial_num": 32,
    "trial_length": 8,
    "click_num": 4,
    "RT": 1381,
    "action": 1,
    "reward": -3.2
  },
  {
    "phase": "TASK",
    "condition": "Cond2",
    "trial_num": 32,
    "trial_length": 8,
    "click_num": 5,
    "RT": 1347,
    "action": 0,
    "reward": -2.5
  },
  {
    "phase": "TASK",
    "condition": "Cond2",
    "trial_num": 32,
    "trial_length": 8,
    "click_num": 6,
    "RT": 936,
    "action": 0,
    "reward": -2.5
  },
  {
    "phase": "TASK",
    "condition": "Cond2",
    "trial_num": 32,
    "trial_length": 8,
    "click_num": 7,
    "RT": 1367,
    "action": 1,
    "reward": -3.1
  },
  {
    "phase": "TASK",
    "condition": "Cond2",
    "trial_num": 32,
    "trial_length": 8,
    "click_num": 8,
    "RT": 1097,
    "action": 0,
    "reward": -2.5
  },
  {
    "phase": "TASK",
    "condition": "Cond2",
    "trial_num": 33,
    "trial_length": 5,
    "click_num": 1,
    "RT": 1064,
    "action": 1,
    "reward": -3.1
  },
  {
    "phase": "TASK",
    "condition": "Cond2",
    "trial_num": 33,
    "trial_length": 5,
    "click_num": 2,
    "RT": 1404,
    "action": 1,
    "reward": -2.4
  },
  {
    "phase": "TASK",
    "condition": "Cond2",
    "trial_num": 33,
    "trial_length": 5,
    "click_num": 3,
    "RT": 1213,
    "action": 1,
    "reward": -2.3
  },
  {
    "phase": "TASK",
    "condition": "Cond2",
    "trial_num": 33,
    "trial_length": 5,
    "click_num": 4,
    "RT": 1358,
    "action": 1,
    "reward": -3.3
  },
  {
    "phase": "TASK",
    "condition": "Cond2",
    "trial_num": 33,
    "trial_length": 5,
    "click_num": 5,
    "RT": 1544,
    "action": 0,
    "reward": -2.3
  },
  {
    "phase": "TASK",
    "condition": "Cond2",
    "trial_num": 34,
    "trial_length": 10,
    "click_num": 1,
    "RT": 1560,
    "action": 1,
    "reward": -3.1
  },
  {
    "phase": "TASK",
    "condition": "Cond2",
    "trial_num": 34,
    "trial_length": 10,
    "click_num": 2,
    "RT": 1343,
    "action": 1,
    "reward": -3.8
  },
  {
    "phase": "TASK",
    "condition": "Cond2",
    "trial_num": 34,
    "trial_length": 10,
    "click_num": 3,
    "RT": 960,
    "action": 1,
    "reward": -2.3
  },
  {
    "phase": "TASK",
    "condition": "Cond2",
    "trial_num": 34,
    "trial_length": 10,
    "click_num": 4,
    "RT": 1417,
    "action": 1,
    "reward": -3.6
  },
  {
    "phase": "TASK",
    "condition": "Cond2",
    "trial_num": 34,
    "trial_length": 10,
    "click_num": 5,
    "RT": 1079,
    "action": 1,
    "reward": -2.8
  },
  {
    "phase": "TASK",
    "condition": "Cond2",
    "trial_num": 34,
    "trial_length": 10,
    "click_num": 6,
    "RT": 1560,
    "action": 1,
    "reward": -2.7
  },
  {
    "phase": "TASK",
    "condition": "Cond2",
    "trial_num": 34,
    "trial_length": 10,
    "click_num": 7,
    "RT": 1616,
    "action": 0,
    "reward": -2.3
  },
  {
    "phase": "TASK",
    "condition": "Cond2",
    "trial_num": 34,
    "trial_length": 10,
    "click_num": 8,
    "RT": 665,
    "action": 0,
    "reward": -2.3
  },
  {
    "phase": "TASK",
    "condition": "Cond2",
    "trial_num": 34,
    "trial_length": 10,
    "click_num": 9,
    "RT": 719,
    "action": 0,
    "reward": -2.3
  },
  {
    "phase": "TASK",
    "condition": "Cond2",
    "trial_num": 34,
    "trial_length": 10,
    "click_num": 10,
    "RT": 683,
    "action": 0,
    "reward": -2.3
  },
  {
    "phase": "TASK",
    "condition": "Cond2",
    "trial_num": 35,
    "trial_length": 7,
    "click_num": 1,
    "RT": 1252,
    "action": 1,
    "reward": -2.6
  },
  {
    "phase": "TASK",
    "condition": "Cond2",
    "trial_num": 35,
    "trial_length": 7,
    "click_num": 2,
    "RT": 1569,
    "action": 1,
    "reward": -3
  },
  {
    "phase": "TASK",
    "condition": "Cond2",
    "trial_num": 35,
    "trial_length": 7,
    "click_num": 3,
    "RT": 1055,
    "action": 1,
    "reward": -3.7
  },
  {
    "phase": "TASK",
    "condition": "Cond2",
    "trial_num": 35,
    "trial_length": 7,
    "click_num": 4,
    "RT": 1217,
    "action": 1,
    "reward": -2.3
  },
  {
    "phase": "TASK",
    "condition": "Cond2",
    "trial_num": 35,
    "trial_length": 7,
    "click_num": 5,
    "RT": 2960,
    "action": 0,
    "reward": -2.3
  },
  {
    "phase": "TASK",
    "condition": "Cond2",
    "trial_num": 35,
    "trial_length": 7,
    "click_num": 6,
    "RT": 687,
    "action": 0,
    "reward": -2.3
  },
  {
    "phase": "TASK",
    "condition": "Cond2",
    "trial_num": 35,
    "trial_length": 7,
    "click_num": 7,
    "RT": 649,
    "action": 0,
    "reward": -2.3
  },
  {
    "phase": "TASK",
    "condition": "Cond2",
    "trial_num": 36,
    "trial_length": 5,
    "click_num": 1,
    "RT": 1241,
    "action": 1,
    "reward": -3
  },
  {
    "phase": "TASK",
    "condition": "Cond2",
    "trial_num": 36,
    "trial_length": 5,
    "click_num": 2,
    "RT": 1563,
    "action": 1,
    "reward": -3.8
  },
  {
    "phase": "TASK",
    "condition": "Cond2",
    "trial_num": 36,
    "trial_length": 5,
    "click_num": 3,
    "RT": 1256,
    "action": 1,
    "reward": -2.2
  },
  {
    "phase": "TASK",
    "condition": "Cond2",
    "trial_num": 36,
    "trial_length": 5,
    "click_num": 4,
    "RT": 1624,
    "action": 1,
    "reward": -4.1
  },
  {
    "phase": "TASK",
    "condition": "Cond2",
    "trial_num": 36,
    "trial_length": 5,
    "click_num": 5,
    "RT": 1305,
    "action": 1,
    "reward": -4
  },
  {
    "phase": "TASK",
    "condition": "Cond2",
    "trial_num": 37,
    "trial_length": 6,
    "click_num": 1,
    "RT": 1325,
    "action": 1,
    "reward": -2.7
  },
  {
    "phase": "TASK",
    "condition": "Cond2",
    "trial_num": 37,
    "trial_length": 6,
    "click_num": 2,
    "RT": 2761,
    "action": 1,
    "reward": -3.3
  },
  {
    "phase": "TASK",
    "condition": "Cond2",
    "trial_num": 37,
    "trial_length": 6,
    "click_num": 3,
    "RT": 1208,
    "action": 1,
    "reward": -3.6
  },
  {
    "phase": "TASK",
    "condition": "Cond2",
    "trial_num": 37,
    "trial_length": 6,
    "click_num": 4,
    "RT": 2386,
    "action": 1,
    "reward": -3.5
  },
  {
    "phase": "TASK",
    "condition": "Cond2",
    "trial_num": 37,
    "trial_length": 6,
    "click_num": 5,
    "RT": 1861,
    "action": 0,
    "reward": -2.7
  },
  {
    "phase": "TASK",
    "condition": "Cond2",
    "trial_num": 37,
    "trial_length": 6,
    "click_num": 6,
    "RT": 665,
    "action": 0,
    "reward": -2.7
  },
  {
    "phase": "TASK",
    "condition": "Cond2",
    "trial_num": 38,
    "trial_length": 8,
    "click_num": 1,
    "RT": 1237,
    "action": 1,
    "reward": -2.5
  },
  {
    "phase": "TASK",
    "condition": "Cond2",
    "trial_num": 38,
    "trial_length": 8,
    "click_num": 2,
    "RT": 1799,
    "action": 1,
    "reward": -2.8
  },
  {
    "phase": "TASK",
    "condition": "Cond2",
    "trial_num": 38,
    "trial_length": 8,
    "click_num": 3,
    "RT": 1673,
    "action": 1,
    "reward": -3.8
  },
  {
    "phase": "TASK",
    "condition": "Cond2",
    "trial_num": 38,
    "trial_length": 8,
    "click_num": 4,
    "RT": 2193,
    "action": 0,
    "reward": -2.5
  },
  {
    "phase": "TASK",
    "condition": "Cond2",
    "trial_num": 38,
    "trial_length": 8,
    "click_num": 5,
    "RT": 847,
    "action": 1,
    "reward": -3
  },
  {
    "phase": "TASK",
    "condition": "Cond2",
    "trial_num": 38,
    "trial_length": 8,
    "click_num": 6,
    "RT": 1328,
    "action": 0,
    "reward": -2.5
  },
  {
    "phase": "TASK",
    "condition": "Cond2",
    "trial_num": 38,
    "trial_length": 8,
    "click_num": 7,
    "RT": 856,
    "action": 0,
    "reward": -2.5
  },
  {
    "phase": "TASK",
    "condition": "Cond2",
    "trial_num": 38,
    "trial_length": 8,
    "click_num": 8,
    "RT": 880,
    "action": 0,
    "reward": -2.5
  },
  {
    "phase": "TASK",
    "condition": "Cond2",
    "trial_num": 39,
    "trial_length": 6,
    "click_num": 1,
    "RT": 1160,
    "action": 1,
    "reward": -3.9
  },
  {
    "phase": "TASK",
    "condition": "Cond2",
    "trial_num": 39,
    "trial_length": 6,
    "click_num": 2,
    "RT": 1834,
    "action": 1,
    "reward": -2.5
  },
  {
    "phase": "TASK",
    "condition": "Cond2",
    "trial_num": 39,
    "trial_length": 6,
    "click_num": 3,
    "RT": 1438,
    "action": 1,
    "reward": -3.9
  },
  {
    "phase": "TASK",
    "condition": "Cond2",
    "trial_num": 39,
    "trial_length": 6,
    "click_num": 4,
    "RT": 3328,
    "action": 0,
    "reward": -2.5
  },
  {
    "phase": "TASK",
    "condition": "Cond2",
    "trial_num": 39,
    "trial_length": 6,
    "click_num": 5,
    "RT": 963,
    "action": 0,
    "reward": -2.5
  },
  {
    "phase": "TASK",
    "condition": "Cond2",
    "trial_num": 39,
    "trial_length": 6,
    "click_num": 6,
    "RT": 1101,
    "action": 0,
    "reward": -2.5
  },
  {
    "phase": "TASK",
    "condition": "Cond2",
    "trial_num": 40,
    "trial_length": 9,
    "click_num": 1,
    "RT": 981,
    "action": 1,
    "reward": -2.2
  },
  {
    "phase": "TASK",
    "condition": "Cond2",
    "trial_num": 40,
    "trial_length": 9,
    "click_num": 2,
    "RT": 2152,
    "action": 1,
    "reward": -2.9
  },
  {
    "phase": "TASK",
    "condition": "Cond2",
    "trial_num": 40,
    "trial_length": 9,
    "click_num": 3,
    "RT": 1249,
    "action": 1,
    "reward": -2.8
  },
  {
    "phase": "TASK",
    "condition": "Cond2",
    "trial_num": 40,
    "trial_length": 9,
    "click_num": 4,
    "RT": 1632,
    "action": 1,
    "reward": -3.5
  },
  {
    "phase": "TASK",
    "condition": "Cond2",
    "trial_num": 40,
    "trial_length": 9,
    "click_num": 5,
    "RT": 1418,
    "action": 0,
    "reward": -2.2
  },
  {
    "phase": "TASK",
    "condition": "Cond2",
    "trial_num": 40,
    "trial_length": 9,
    "click_num": 6,
    "RT": 1431,
    "action": 1,
    "reward": -3.4
  },
  {
    "phase": "TASK",
    "condition": "Cond2",
    "trial_num": 40,
    "trial_length": 9,
    "click_num": 7,
    "RT": 1159,
    "action": 0,
    "reward": -2.2
  },
  {
    "phase": "TASK",
    "condition": "Cond2",
    "trial_num": 40,
    "trial_length": 9,
    "click_num": 8,
    "RT": 951,
    "action": 0,
    "reward": -2.2
  },
  {
    "phase": "TASK",
    "condition": "Cond2",
    "trial_num": 40,
    "trial_length": 9,
    "click_num": 9,
    "RT": 844,
    "action": 0,
    "reward": -2.2
  },
  {
    "phase": "TASK",
    "condition": "Cond2",
    "trial_num": 41,
    "trial_length": 8,
    "click_num": 1,
    "RT": 1262,
    "action": 1,
    "reward": -2.5
  },
  {
    "phase": "TASK",
    "condition": "Cond2",
    "trial_num": 41,
    "trial_length": 8,
    "click_num": 2,
    "RT": 1992,
    "action": 1,
    "reward": -3.1
  },
  {
    "phase": "TASK",
    "condition": "Cond2",
    "trial_num": 41,
    "trial_length": 8,
    "click_num": 3,
    "RT": 970,
    "action": 1,
    "reward": -2.7
  },
  {
    "phase": "TASK",
    "condition": "Cond2",
    "trial_num": 41,
    "trial_length": 8,
    "click_num": 4,
    "RT": 1396,
    "action": 1,
    "reward": -3.4
  },
  {
    "phase": "TASK",
    "condition": "Cond2",
    "trial_num": 41,
    "trial_length": 8,
    "click_num": 5,
    "RT": 1290,
    "action": 0,
    "reward": -2.5
  },
  {
    "phase": "TASK",
    "condition": "Cond2",
    "trial_num": 41,
    "trial_length": 8,
    "click_num": 6,
    "RT": 903,
    "action": 1,
    "reward": -3.5
  },
  {
    "phase": "TASK",
    "condition": "Cond2",
    "trial_num": 41,
    "trial_length": 8,
    "click_num": 7,
    "RT": 1212,
    "action": 0,
    "reward": -2.5
  },
  {
    "phase": "TASK",
    "condition": "Cond2",
    "trial_num": 41,
    "trial_length": 8,
    "click_num": 8,
    "RT": 877,
    "action": 0,
    "reward": -2.5
  },
  {
    "phase": "TASK",
    "condition": "Cond2",
    "trial_num": 42,
    "trial_length": 10,
    "click_num": 1,
    "RT": 1006,
    "action": 1,
    "reward": -3.3
  },
  {
    "phase": "TASK",
    "condition": "Cond2",
    "trial_num": 42,
    "trial_length": 10,
    "click_num": 2,
    "RT": 1555,
    "action": 1,
    "reward": -1.8
  },
  {
    "phase": "TASK",
    "condition": "Cond2",
    "trial_num": 42,
    "trial_length": 10,
    "click_num": 3,
    "RT": 1365,
    "action": 0,
    "reward": -1.8
  },
  {
    "phase": "TASK",
    "condition": "Cond2",
    "trial_num": 42,
    "trial_length": 10,
    "click_num": 4,
    "RT": 704,
    "action": 0,
    "reward": -1.8
  },
  {
    "phase": "TASK",
    "condition": "Cond2",
    "trial_num": 42,
    "trial_length": 10,
    "click_num": 5,
    "RT": 1095,
    "action": 0,
    "reward": -1.8
  },
  {
    "phase": "TASK",
    "condition": "Cond2",
    "trial_num": 42,
    "trial_length": 10,
    "click_num": 6,
    "RT": 944,
    "action": 0,
    "reward": -1.8
  },
  {
    "phase": "TASK",
    "condition": "Cond2",
    "trial_num": 42,
    "trial_length": 10,
    "click_num": 7,
    "RT": 772,
    "action": 0,
    "reward": -1.8
  },
  {
    "phase": "TASK",
    "condition": "Cond2",
    "trial_num": 42,
    "trial_length": 10,
    "click_num": 8,
    "RT": 732,
    "action": 0,
    "reward": -1.8
  },
  {
    "phase": "TASK",
    "condition": "Cond2",
    "trial_num": 42,
    "trial_length": 10,
    "click_num": 9,
    "RT": 808,
    "action": 0,
    "reward": -1.8
  },
  {
    "phase": "TASK",
    "condition": "Cond2",
    "trial_num": 42,
    "trial_length": 10,
    "click_num": 10,
    "RT": 752,
    "action": 0,
    "reward": -1.8
  },
  {
    "phase": "TASK",
    "condition": "Cond2",
    "trial_num": 43,
    "trial_length": 6,
    "click_num": 1,
    "RT": 1140,
    "action": 1,
    "reward": -2.4
  },
  {
    "phase": "TASK",
    "condition": "Cond2",
    "trial_num": 43,
    "trial_length": 6,
    "click_num": 2,
    "RT": 2544,
    "action": 1,
    "reward": -2.5
  },
  {
    "phase": "TASK",
    "condition": "Cond2",
    "trial_num": 43,
    "trial_length": 6,
    "click_num": 3,
    "RT": 1288,
    "action": 1,
    "reward": -3.5
  },
  {
    "phase": "TASK",
    "condition": "Cond2",
    "trial_num": 43,
    "trial_length": 6,
    "click_num": 4,
    "RT": 1024,
    "action": 0,
    "reward": -2.4
  },
  {
    "phase": "TASK",
    "condition": "Cond2",
    "trial_num": 43,
    "trial_length": 6,
    "click_num": 5,
    "RT": 664,
    "action": 0,
    "reward": -2.4
  },
  {
    "phase": "TASK",
    "condition": "Cond2",
    "trial_num": 43,
    "trial_length": 6,
    "click_num": 6,
    "RT": 648,
    "action": 0,
    "reward": -2.4
  },
  {
    "phase": "TASK",
    "condition": "Cond2",
    "trial_num": 44,
    "trial_length": 9,
    "click_num": 1,
    "RT": 1105,
    "action": 1,
    "reward": -3.5
  },
  {
    "phase": "TASK",
    "condition": "Cond2",
    "trial_num": 44,
    "trial_length": 9,
    "click_num": 2,
    "RT": 2655,
    "action": 1,
    "reward": -2.3
  },
  {
    "phase": "TASK",
    "condition": "Cond2",
    "trial_num": 44,
    "trial_length": 9,
    "click_num": 3,
    "RT": 1728,
    "action": 1,
    "reward": -3.3
  },
  {
    "phase": "TASK",
    "condition": "Cond2",
    "trial_num": 44,
    "trial_length": 9,
    "click_num": 4,
    "RT": 1099,
    "action": 0,
    "reward": -2.3
  },
  {
    "phase": "TASK",
    "condition": "Cond2",
    "trial_num": 44,
    "trial_length": 9,
    "click_num": 5,
    "RT": 749,
    "action": 1,
    "reward": -3.3
  },
  {
    "phase": "TASK",
    "condition": "Cond2",
    "trial_num": 44,
    "trial_length": 9,
    "click_num": 6,
    "RT": 1328,
    "action": 0,
    "reward": -2.3
  },
  {
    "phase": "TASK",
    "condition": "Cond2",
    "trial_num": 44,
    "trial_length": 9,
    "click_num": 7,
    "RT": 873,
    "action": 0,
    "reward": -2.3
  },
  {
    "phase": "TASK",
    "condition": "Cond2",
    "trial_num": 44,
    "trial_length": 9,
    "click_num": 8,
    "RT": 735,
    "action": 0,
    "reward": -2.3
  },
  {
    "phase": "TASK",
    "condition": "Cond2",
    "trial_num": 44,
    "trial_length": 9,
    "click_num": 9,
    "RT": 730,
    "action": 0,
    "reward": -2.3
  },
  {
    "phase": "TASK",
    "condition": "Cond2",
    "trial_num": 45,
    "trial_length": 9,
    "click_num": 1,
    "RT": 1269,
    "action": 1,
    "reward": -3.3
  },
  {
    "phase": "TASK",
    "condition": "Cond2",
    "trial_num": 45,
    "trial_length": 9,
    "click_num": 2,
    "RT": 1777,
    "action": 1,
    "reward": -2.9
  },
  {
    "phase": "TASK",
    "condition": "Cond2",
    "trial_num": 45,
    "trial_length": 9,
    "click_num": 3,
    "RT": 1321,
    "action": 1,
    "reward": -3.1
  },
  {
    "phase": "TASK",
    "condition": "Cond2",
    "trial_num": 45,
    "trial_length": 9,
    "click_num": 4,
    "RT": 1300,
    "action": 1,
    "reward": -2.3
  },
  {
    "phase": "TASK",
    "condition": "Cond2",
    "trial_num": 45,
    "trial_length": 9,
    "click_num": 5,
    "RT": 1730,
    "action": 1,
    "reward": -3.2
  },
  {
    "phase": "TASK",
    "condition": "Cond2",
    "trial_num": 45,
    "trial_length": 9,
    "click_num": 6,
    "RT": 1183,
    "action": 0,
    "reward": -2.3
  },
  {
    "phase": "TASK",
    "condition": "Cond2",
    "trial_num": 45,
    "trial_length": 9,
    "click_num": 7,
    "RT": 875,
    "action": 0,
    "reward": -2.3
  },
  {
    "phase": "TASK",
    "condition": "Cond2",
    "trial_num": 45,
    "trial_length": 9,
    "click_num": 8,
    "RT": 854,
    "action": 0,
    "reward": -2.3
  },
  {
    "phase": "TASK",
    "condition": "Cond2",
    "trial_num": 45,
    "trial_length": 9,
    "click_num": 9,
    "RT": 793,
    "action": 0,
    "reward": -2.3
  },
  {
    "phase": "TASK",
    "condition": "Cond2",
    "trial_num": 46,
    "trial_length": 8,
    "click_num": 1,
    "RT": 1086,
    "action": 1,
    "reward": -1.8
  },
  {
    "phase": "TASK",
    "condition": "Cond2",
    "trial_num": 46,
    "trial_length": 8,
    "click_num": 2,
    "RT": 2311,
    "action": 0,
    "reward": -1.8
  },
  {
    "phase": "TASK",
    "condition": "Cond2",
    "trial_num": 46,
    "trial_length": 8,
    "click_num": 3,
    "RT": 627,
    "action": 0,
    "reward": -1.8
  },
  {
    "phase": "TASK",
    "condition": "Cond2",
    "trial_num": 46,
    "trial_length": 8,
    "click_num": 4,
    "RT": 662,
    "action": 0,
    "reward": -1.8
  },
  {
    "phase": "TASK",
    "condition": "Cond2",
    "trial_num": 46,
    "trial_length": 8,
    "click_num": 5,
    "RT": 647,
    "action": 0,
    "reward": -1.8
  },
  {
    "phase": "TASK",
    "condition": "Cond2",
    "trial_num": 46,
    "trial_length": 8,
    "click_num": 6,
    "RT": 664,
    "action": 0,
    "reward": -1.8
  },
  {
    "phase": "TASK",
    "condition": "Cond2",
    "trial_num": 46,
    "trial_length": 8,
    "click_num": 7,
    "RT": 608,
    "action": 0,
    "reward": -1.8
  },
  {
    "phase": "TASK",
    "condition": "Cond2",
    "trial_num": 46,
    "trial_length": 8,
    "click_num": 8,
    "RT": 624,
    "action": 0,
    "reward": -1.8
  },
  {
    "phase": "TASK",
    "condition": "Cond2",
    "trial_num": 47,
    "trial_length": 10,
    "click_num": 1,
    "RT": 1375,
    "action": 1,
    "reward": -2.9
  },
  {
    "phase": "TASK",
    "condition": "Cond2",
    "trial_num": 47,
    "trial_length": 10,
    "click_num": 2,
    "RT": 1584,
    "action": 1,
    "reward": -3
  },
  {
    "phase": "TASK",
    "condition": "Cond2",
    "trial_num": 47,
    "trial_length": 10,
    "click_num": 3,
    "RT": 1087,
    "action": 1,
    "reward": -3.4
  },
  {
    "phase": "TASK",
    "condition": "Cond2",
    "trial_num": 47,
    "trial_length": 10,
    "click_num": 4,
    "RT": 1088,
    "action": 1,
    "reward": -3.6
  },
  {
    "phase": "TASK",
    "condition": "Cond2",
    "trial_num": 47,
    "trial_length": 10,
    "click_num": 5,
    "RT": 1240,
    "action": 1,
    "reward": -3.6
  },
  {
    "phase": "TASK",
    "condition": "Cond2",
    "trial_num": 47,
    "trial_length": 10,
    "click_num": 6,
    "RT": 1672,
    "action": 1,
    "reward": -3.5
  },
  {
    "phase": "TASK",
    "condition": "Cond2",
    "trial_num": 47,
    "trial_length": 10,
    "click_num": 7,
    "RT": 1704,
    "action": 1,
    "reward": -3.7
  },
  {
    "phase": "TASK",
    "condition": "Cond2",
    "trial_num": 47,
    "trial_length": 10,
    "click_num": 8,
    "RT": 3529,
    "action": 0,
    "reward": -2.9
  },
  {
    "phase": "TASK",
    "condition": "Cond2",
    "trial_num": 47,
    "trial_length": 10,
    "click_num": 9,
    "RT": 1871,
    "action": 0,
    "reward": -2.9
  },
  {
    "phase": "TASK",
    "condition": "Cond2",
    "trial_num": 47,
    "trial_length": 10,
    "click_num": 10,
    "RT": 809,
    "action": 0,
    "reward": -2.9
  },
  {
    "phase": "TASK",
    "condition": "Cond2",
    "trial_num": 48,
    "trial_length": 9,
    "click_num": 1,
    "RT": 1768,
    "action": 1,
    "reward": -3
  },
  {
    "phase": "TASK",
    "condition": "Cond2",
    "trial_num": 48,
    "trial_length": 9,
    "click_num": 2,
    "RT": 1216,
    "action": 1,
    "reward": -2.7
  },
  {
    "phase": "TASK",
    "condition": "Cond2",
    "trial_num": 48,
    "trial_length": 9,
    "click_num": 3,
    "RT": 960,
    "action": 1,
    "reward": -1.8
  },
  {
    "phase": "TASK",
    "condition": "Cond2",
    "trial_num": 48,
    "trial_length": 9,
    "click_num": 4,
    "RT": 1488,
    "action": 0,
    "reward": -1.8
  },
  {
    "phase": "TASK",
    "condition": "Cond2",
    "trial_num": 48,
    "trial_length": 9,
    "click_num": 5,
    "RT": 696,
    "action": 0,
    "reward": -1.8
  },
  {
    "phase": "TASK",
    "condition": "Cond2",
    "trial_num": 48,
    "trial_length": 9,
    "click_num": 6,
    "RT": 655,
    "action": 0,
    "reward": -1.8
  },
  {
    "phase": "TASK",
    "condition": "Cond2",
    "trial_num": 48,
    "trial_length": 9,
    "click_num": 7,
    "RT": 1408,
    "action": 0,
    "reward": -1.8
  },
  {
    "phase": "TASK",
    "condition": "Cond2",
    "trial_num": 48,
    "trial_length": 9,
    "click_num": 8,
    "RT": 688,
    "action": 0,
    "reward": -1.8
  },
  {
    "phase": "TASK",
    "condition": "Cond2",
    "trial_num": 48,
    "trial_length": 9,
    "click_num": 9,
    "RT": 921,
    "action": 0,
    "reward": -1.8
  },
  {
    "phase": "TASK",
    "condition": "Cond2",
    "trial_num": 49,
    "trial_length": 6,
    "click_num": 1,
    "RT": 1007,
    "action": 1,
    "reward": -2.4
  },
  {
    "phase": "TASK",
    "condition": "Cond2",
    "trial_num": 49,
    "trial_length": 6,
    "click_num": 2,
    "RT": 1368,
    "action": 1,
    "reward": -3
  },
  {
    "phase": "TASK",
    "condition": "Cond2",
    "trial_num": 49,
    "trial_length": 6,
    "click_num": 3,
    "RT": 1840,
    "action": 1,
    "reward": -4
  },
  {
    "phase": "TASK",
    "condition": "Cond2",
    "trial_num": 49,
    "trial_length": 6,
    "click_num": 4,
    "RT": 1456,
    "action": 0,
    "reward": -2.4
  },
  {
    "phase": "TASK",
    "condition": "Cond2",
    "trial_num": 49,
    "trial_length": 6,
    "click_num": 5,
    "RT": 984,
    "action": 0,
    "reward": -2.4
  },
  {
    "phase": "TASK",
    "condition": "Cond2",
    "trial_num": 49,
    "trial_length": 6,
    "click_num": 6,
    "RT": 808,
    "action": 0,
    "reward": -2.4
  },
  {
    "phase": "TASK",
    "condition": "Cond2",
    "trial_num": 50,
    "trial_length": 10,
    "click_num": 1,
    "RT": 967,
    "action": 1,
    "reward": -2.1
  },
  {
    "phase": "TASK",
    "condition": "Cond2",
    "trial_num": 50,
    "trial_length": 10,
    "click_num": 2,
    "RT": 2016,
    "action": 0,
    "reward": -2.1
  },
  {
    "phase": "TASK",
    "condition": "Cond2",
    "trial_num": 50,
    "trial_length": 10,
    "click_num": 3,
    "RT": 1504,
    "action": 0,
    "reward": -2.1
  },
  {
    "phase": "TASK",
    "condition": "Cond2",
    "trial_num": 50,
    "trial_length": 10,
    "click_num": 4,
    "RT": 656,
    "action": 0,
    "reward": -2.1
  },
  {
    "phase": "TASK",
    "condition": "Cond2",
    "trial_num": 50,
    "trial_length": 10,
    "click_num": 5,
    "RT": 679,
    "action": 0,
    "reward": -2.1
  },
  {
    "phase": "TASK",
    "condition": "Cond2",
    "trial_num": 50,
    "trial_length": 10,
    "click_num": 6,
    "RT": 664,
    "action": 0,
    "reward": -2.1
  },
  {
    "phase": "TASK",
    "condition": "Cond2",
    "trial_num": 50,
    "trial_length": 10,
    "click_num": 7,
    "RT": 1257,
    "action": 0,
    "reward": -2.1
  },
  {
    "phase": "TASK",
    "condition": "Cond2",
    "trial_num": 50,
    "trial_length": 10,
    "click_num": 8,
    "RT": 726,
    "action": 0,
    "reward": -2.1
  },
  {
    "phase": "TASK",
    "condition": "Cond2",
    "trial_num": 50,
    "trial_length": 10,
    "click_num": 9,
    "RT": 666,
    "action": 0,
    "reward": -2.1
  },
  {
    "phase": "TASK",
    "condition": "Cond2",
    "trial_num": 50,
    "trial_length": 10,
    "click_num": 10,
    "RT": 671,
    "action": 0,
    "reward": -2.1
  },
  {
    "phase": "TASK",
    "condition": "Cond2",
    "trial_num": 51,
    "trial_length": 9,
    "click_num": 1,
    "RT": 1187,
    "action": 1,
    "reward": -3.7
  },
  {
    "phase": "TASK",
    "condition": "Cond2",
    "trial_num": 51,
    "trial_length": 9,
    "click_num": 2,
    "RT": 1479,
    "action": 1,
    "reward": -3.3
  },
  {
    "phase": "TASK",
    "condition": "Cond2",
    "trial_num": 51,
    "trial_length": 9,
    "click_num": 3,
    "RT": 992,
    "action": 1,
    "reward": -2.6
  },
  {
    "phase": "TASK",
    "condition": "Cond2",
    "trial_num": 51,
    "trial_length": 9,
    "click_num": 4,
    "RT": 1937,
    "action": 1,
    "reward": -3
  },
  {
    "phase": "TASK",
    "condition": "Cond2",
    "trial_num": 51,
    "trial_length": 9,
    "click_num": 5,
    "RT": 1471,
    "action": 1,
    "reward": -3.2
  },
  {
    "phase": "TASK",
    "condition": "Cond2",
    "trial_num": 51,
    "trial_length": 9,
    "click_num": 6,
    "RT": 888,
    "action": 0,
    "reward": -2.6
  },
  {
    "phase": "TASK",
    "condition": "Cond2",
    "trial_num": 51,
    "trial_length": 9,
    "click_num": 7,
    "RT": 684,
    "action": 0,
    "reward": -2.6
  },
  {
    "phase": "TASK",
    "condition": "Cond2",
    "trial_num": 51,
    "trial_length": 9,
    "click_num": 8,
    "RT": 667,
    "action": 0,
    "reward": -2.6
  },
  {
    "phase": "TASK",
    "condition": "Cond2",
    "trial_num": 51,
    "trial_length": 9,
    "click_num": 9,
    "RT": 642,
    "action": 0,
    "reward": -2.6
  },
  {
    "phase": "TASK",
    "condition": "Cond2",
    "trial_num": 52,
    "trial_length": 6,
    "click_num": 1,
    "RT": 1488,
    "action": 1,
    "reward": -3.3
  },
  {
    "phase": "TASK",
    "condition": "Cond2",
    "trial_num": 52,
    "trial_length": 6,
    "click_num": 2,
    "RT": 1633,
    "action": 1,
    "reward": -4.6
  },
  {
    "phase": "TASK",
    "condition": "Cond2",
    "trial_num": 52,
    "trial_length": 6,
    "click_num": 3,
    "RT": 1277,
    "action": 1,
    "reward": -3.6
  },
  {
    "phase": "TASK",
    "condition": "Cond2",
    "trial_num": 52,
    "trial_length": 6,
    "click_num": 4,
    "RT": 1671,
    "action": 1,
    "reward": -3.6
  },
  {
    "phase": "TASK",
    "condition": "Cond2",
    "trial_num": 52,
    "trial_length": 6,
    "click_num": 5,
    "RT": 1555,
    "action": 0,
    "reward": -3.3
  },
  {
    "phase": "TASK",
    "condition": "Cond2",
    "trial_num": 52,
    "trial_length": 6,
    "click_num": 6,
    "RT": 646,
    "action": 0,
    "reward": -3.3
  },
  {
    "phase": "TASK",
    "condition": "Cond2",
    "trial_num": 53,
    "trial_length": 8,
    "click_num": 1,
    "RT": 1367,
    "action": 1,
    "reward": -3.4
  },
  {
    "phase": "TASK",
    "condition": "Cond2",
    "trial_num": 53,
    "trial_length": 8,
    "click_num": 2,
    "RT": 2336,
    "action": 1,
    "reward": -3.5
  },
  {
    "phase": "TASK",
    "condition": "Cond2",
    "trial_num": 53,
    "trial_length": 8,
    "click_num": 3,
    "RT": 1111,
    "action": 1,
    "reward": -2.9
  },
  {
    "phase": "TASK",
    "condition": "Cond2",
    "trial_num": 53,
    "trial_length": 8,
    "click_num": 4,
    "RT": 944,
    "action": 1,
    "reward": -2.7
  },
  {
    "phase": "TASK",
    "condition": "Cond2",
    "trial_num": 53,
    "trial_length": 8,
    "click_num": 5,
    "RT": 1288,
    "action": 1,
    "reward": -1.9
  },
  {
    "phase": "TASK",
    "condition": "Cond2",
    "trial_num": 53,
    "trial_length": 8,
    "click_num": 6,
    "RT": 1273,
    "action": 0,
    "reward": -1.9
  },
  {
    "phase": "TASK",
    "condition": "Cond2",
    "trial_num": 53,
    "trial_length": 8,
    "click_num": 7,
    "RT": 671,
    "action": 0,
    "reward": -1.9
  },
  {
    "phase": "TASK",
    "condition": "Cond2",
    "trial_num": 53,
    "trial_length": 8,
    "click_num": 8,
    "RT": 729,
    "action": 0,
    "reward": -1.9
  },
  {
    "phase": "TASK",
    "condition": "Cond2",
    "trial_num": 54,
    "trial_length": 9,
    "click_num": 1,
    "RT": 1200,
    "action": 1,
    "reward": -3.2
  },
  {
    "phase": "TASK",
    "condition": "Cond2",
    "trial_num": 54,
    "trial_length": 9,
    "click_num": 2,
    "RT": 1176,
    "action": 1,
    "reward": -2.6
  },
  {
    "phase": "TASK",
    "condition": "Cond2",
    "trial_num": 54,
    "trial_length": 9,
    "click_num": 3,
    "RT": 1351,
    "action": 1,
    "reward": -2.4
  },
  {
    "phase": "TASK",
    "condition": "Cond2",
    "trial_num": 54,
    "trial_length": 9,
    "click_num": 4,
    "RT": 1751,
    "action": 1,
    "reward": -3.7
  },
  {
    "phase": "TASK",
    "condition": "Cond2",
    "trial_num": 54,
    "trial_length": 9,
    "click_num": 5,
    "RT": 1200,
    "action": 0,
    "reward": -2.4
  },
  {
    "phase": "TASK",
    "condition": "Cond2",
    "trial_num": 54,
    "trial_length": 9,
    "click_num": 6,
    "RT": 755,
    "action": 0,
    "reward": -2.4
  },
  {
    "phase": "TASK",
    "condition": "Cond2",
    "trial_num": 54,
    "trial_length": 9,
    "click_num": 7,
    "RT": 669,
    "action": 0,
    "reward": -2.4
  },
  {
    "phase": "TASK",
    "condition": "Cond2",
    "trial_num": 54,
    "trial_length": 9,
    "click_num": 8,
    "RT": 665,
    "action": 0,
    "reward": -2.4
  },
  {
    "phase": "TASK",
    "condition": "Cond2",
    "trial_num": 54,
    "trial_length": 9,
    "click_num": 9,
    "RT": 1986,
    "action": 0,
    "reward": -2.4
  },
  {
    "phase": "TASK",
    "condition": "Cond2",
    "trial_num": 55,
    "trial_length": 5,
    "click_num": 1,
    "RT": 1117,
    "action": 1,
    "reward": -3.9
  },
  {
    "phase": "TASK",
    "condition": "Cond2",
    "trial_num": 55,
    "trial_length": 5,
    "click_num": 2,
    "RT": 1272,
    "action": 1,
    "reward": -3.4
  },
  {
    "phase": "TASK",
    "condition": "Cond2",
    "trial_num": 55,
    "trial_length": 5,
    "click_num": 3,
    "RT": 1136,
    "action": 1,
    "reward": -1.8
  },
  {
    "phase": "TASK",
    "condition": "Cond2",
    "trial_num": 55,
    "trial_length": 5,
    "click_num": 4,
    "RT": 1306,
    "action": 0,
    "reward": -1.8
  },
  {
    "phase": "TASK",
    "condition": "Cond2",
    "trial_num": 55,
    "trial_length": 5,
    "click_num": 5,
    "RT": 693,
    "action": 0,
    "reward": -1.8
  },
  {
    "phase": "TASK",
    "condition": "Cond2",
    "trial_num": 56,
    "trial_length": 5,
    "click_num": 1,
    "RT": 1043,
    "action": 1,
    "reward": -2.4
  },
  {
    "phase": "TASK",
    "condition": "Cond2",
    "trial_num": 56,
    "trial_length": 5,
    "click_num": 2,
    "RT": 1955,
    "action": 1,
    "reward": -2.6
  },
  {
    "phase": "TASK",
    "condition": "Cond2",
    "trial_num": 56,
    "trial_length": 5,
    "click_num": 3,
    "RT": 992,
    "action": 1,
    "reward": -3.2
  },
  {
    "phase": "TASK",
    "condition": "Cond2",
    "trial_num": 56,
    "trial_length": 5,
    "click_num": 4,
    "RT": 972,
    "action": 1,
    "reward": -3.3
  },
  {
    "phase": "TASK",
    "condition": "Cond2",
    "trial_num": 56,
    "trial_length": 5,
    "click_num": 5,
    "RT": 1149,
    "action": 1,
    "reward": -3.3
  },
  {
    "phase": "TASK",
    "condition": "Cond2",
    "trial_num": 57,
    "trial_length": 8,
    "click_num": 1,
    "RT": 1453,
    "action": 1,
    "reward": -3.3
  },
  {
    "phase": "TASK",
    "condition": "Cond2",
    "trial_num": 57,
    "trial_length": 8,
    "click_num": 2,
    "RT": 1488,
    "action": 1,
    "reward": -3.1
  },
  {
    "phase": "TASK",
    "condition": "Cond2",
    "trial_num": 57,
    "trial_length": 8,
    "click_num": 3,
    "RT": 979,
    "action": 1,
    "reward": -2.7
  },
  {
    "phase": "TASK",
    "condition": "Cond2",
    "trial_num": 57,
    "trial_length": 8,
    "click_num": 4,
    "RT": 1245,
    "action": 1,
    "reward": -3.6
  },
  {
    "phase": "TASK",
    "condition": "Cond2",
    "trial_num": 57,
    "trial_length": 8,
    "click_num": 5,
    "RT": 2241,
    "action": 1,
    "reward": -2.8
  },
  {
    "phase": "TASK",
    "condition": "Cond2",
    "trial_num": 57,
    "trial_length": 8,
    "click_num": 6,
    "RT": 1199,
    "action": 0,
    "reward": -2.7
  },
  {
    "phase": "TASK",
    "condition": "Cond2",
    "trial_num": 57,
    "trial_length": 8,
    "click_num": 7,
    "RT": 633,
    "action": 0,
    "reward": -2.7
  },
  {
    "phase": "TASK",
    "condition": "Cond2",
    "trial_num": 57,
    "trial_length": 8,
    "click_num": 8,
    "RT": 647,
    "action": 0,
    "reward": -2.7
  },
  {
    "phase": "TASK",
    "condition": "Cond2",
    "trial_num": 58,
    "trial_length": 6,
    "click_num": 1,
    "RT": 989,
    "action": 1,
    "reward": -2.8
  },
  {
    "phase": "TASK",
    "condition": "Cond2",
    "trial_num": 58,
    "trial_length": 6,
    "click_num": 2,
    "RT": 1570,
    "action": 1,
    "reward": -2.7
  },
  {
    "phase": "TASK",
    "condition": "Cond2",
    "trial_num": 58,
    "trial_length": 6,
    "click_num": 3,
    "RT": 1463,
    "action": 1,
    "reward": -2.9
  },
  {
    "phase": "TASK",
    "condition": "Cond2",
    "trial_num": 58,
    "trial_length": 6,
    "click_num": 4,
    "RT": 2688,
    "action": 0,
    "reward": -2.7
  },
  {
    "phase": "TASK",
    "condition": "Cond2",
    "trial_num": 58,
    "trial_length": 6,
    "click_num": 5,
    "RT": 664,
    "action": 0,
    "reward": -2.7
  },
  {
    "phase": "TASK",
    "condition": "Cond2",
    "trial_num": 58,
    "trial_length": 6,
    "click_num": 6,
    "RT": 842,
    "action": 0,
    "reward": -2.7
  },
  {
    "phase": "TASK",
    "condition": "Cond2",
    "trial_num": 59,
    "trial_length": 10,
    "click_num": 1,
    "RT": 1310,
    "action": 1,
    "reward": -2
  },
  {
    "phase": "TASK",
    "condition": "Cond2",
    "trial_num": 59,
    "trial_length": 10,
    "click_num": 2,
    "RT": 2985,
    "action": 0,
    "reward": -2
  },
  {
    "phase": "TASK",
    "condition": "Cond2",
    "trial_num": 59,
    "trial_length": 10,
    "click_num": 3,
    "RT": 607,
    "action": 0,
    "reward": -2
  },
  {
    "phase": "TASK",
    "condition": "Cond2",
    "trial_num": 59,
    "trial_length": 10,
    "click_num": 4,
    "RT": 823,
    "action": 0,
    "reward": -2
  },
  {
    "phase": "TASK",
    "condition": "Cond2",
    "trial_num": 59,
    "trial_length": 10,
    "click_num": 5,
    "RT": 658,
    "action": 0,
    "reward": -2
  },
  {
    "phase": "TASK",
    "condition": "Cond2",
    "trial_num": 59,
    "trial_length": 10,
    "click_num": 6,
    "RT": 742,
    "action": 0,
    "reward": -2
  },
  {
    "phase": "TASK",
    "condition": "Cond2",
    "trial_num": 59,
    "trial_length": 10,
    "click_num": 7,
    "RT": 1144,
    "action": 0,
    "reward": -2
  },
  {
    "phase": "TASK",
    "condition": "Cond2",
    "trial_num": 59,
    "trial_length": 10,
    "click_num": 8,
    "RT": 936,
    "action": 0,
    "reward": -2
  },
  {
    "phase": "TASK",
    "condition": "Cond2",
    "trial_num": 59,
    "trial_length": 10,
    "click_num": 9,
    "RT": 760,
    "action": 0,
    "reward": -2
  },
  {
    "phase": "TASK",
    "condition": "Cond2",
    "trial_num": 59,
    "trial_length": 10,
    "click_num": 10,
    "RT": 766,
    "action": 0,
    "reward": -2
  },
  {
    "phase": "TASK",
    "condition": "Cond2",
    "trial_num": 60,
    "trial_length": 10,
    "click_num": 1,
    "RT": 2334,
    "action": 1,
    "reward": -3.3
  },
  {
    "phase": "TASK",
    "condition": "Cond2",
    "trial_num": 60,
    "trial_length": 10,
    "click_num": 2,
    "RT": 1208,
    "action": 1,
    "reward": -2.1
  },
  {
    "phase": "TASK",
    "condition": "Cond2",
    "trial_num": 60,
    "trial_length": 10,
    "click_num": 3,
    "RT": 2433,
    "action": 1,
    "reward": -3.5
  },
  {
    "phase": "TASK",
    "condition": "Cond2",
    "trial_num": 60,
    "trial_length": 10,
    "click_num": 4,
    "RT": 919,
    "action": 0,
    "reward": -2.1
  },
  {
    "phase": "TASK",
    "condition": "Cond2",
    "trial_num": 60,
    "trial_length": 10,
    "click_num": 5,
    "RT": 617,
    "action": 0,
    "reward": -2.1
  },
  {
    "phase": "TASK",
    "condition": "Cond2",
    "trial_num": 60,
    "trial_length": 10,
    "click_num": 6,
    "RT": 658,
    "action": 0,
    "reward": -2.1
  },
  {
    "phase": "TASK",
    "condition": "Cond2",
    "trial_num": 60,
    "trial_length": 10,
    "click_num": 7,
    "RT": 621,
    "action": 0,
    "reward": -2.1
  },
  {
    "phase": "TASK",
    "condition": "Cond2",
    "trial_num": 60,
    "trial_length": 10,
    "click_num": 8,
    "RT": 625,
    "action": 0,
    "reward": -2.1
  },
  {
    "phase": "TASK",
    "condition": "Cond2",
    "trial_num": 60,
    "trial_length": 10,
    "click_num": 9,
    "RT": 750,
    "action": 0,
    "reward": -2.1
  },
  {
    "phase": "TASK",
    "condition": "Cond2",
    "trial_num": 60,
    "trial_length": 10,
    "click_num": 10,
    "RT": 762,
    "action": 0,
    "reward": -2.1
  },
  {
    "phase": "TASK",
    "condition": "Cond2",
    "trial_num": 61,
    "trial_length": 10,
    "click_num": 1,
    "RT": 1109,
    "action": 1,
    "reward": -2
  },
  {
    "phase": "TASK",
    "condition": "Cond2",
    "trial_num": 61,
    "trial_length": 10,
    "click_num": 2,
    "RT": 1530,
    "action": 0,
    "reward": -2
  },
  {
    "phase": "TASK",
    "condition": "Cond2",
    "trial_num": 61,
    "trial_length": 10,
    "click_num": 3,
    "RT": 687,
    "action": 0,
    "reward": -2
  },
  {
    "phase": "TASK",
    "condition": "Cond2",
    "trial_num": 61,
    "trial_length": 10,
    "click_num": 4,
    "RT": 712,
    "action": 0,
    "reward": -2
  },
  {
    "phase": "TASK",
    "condition": "Cond2",
    "trial_num": 61,
    "trial_length": 10,
    "click_num": 5,
    "RT": 811,
    "action": 0,
    "reward": -2
  },
  {
    "phase": "TASK",
    "condition": "Cond2",
    "trial_num": 61,
    "trial_length": 10,
    "click_num": 6,
    "RT": 1308,
    "action": 0,
    "reward": -2
  },
  {
    "phase": "TASK",
    "condition": "Cond2",
    "trial_num": 61,
    "trial_length": 10,
    "click_num": 7,
    "RT": 1049,
    "action": 0,
    "reward": -2
  },
  {
    "phase": "TASK",
    "condition": "Cond2",
    "trial_num": 61,
    "trial_length": 10,
    "click_num": 8,
    "RT": 856,
    "action": 0,
    "reward": -2
  },
  {
    "phase": "TASK",
    "condition": "Cond2",
    "trial_num": 61,
    "trial_length": 10,
    "click_num": 9,
    "RT": 864,
    "action": 0,
    "reward": -2
  },
  {
    "phase": "TASK",
    "condition": "Cond2",
    "trial_num": 61,
    "trial_length": 10,
    "click_num": 10,
    "RT": 935,
    "action": 0,
    "reward": -2
  },
  {
    "phase": "TASK",
    "condition": "Cond2",
    "trial_num": 62,
    "trial_length": 6,
    "click_num": 1,
    "RT": 1070,
    "action": 1,
    "reward": -2.8
  },
  {
    "phase": "TASK",
    "condition": "Cond2",
    "trial_num": 62,
    "trial_length": 6,
    "click_num": 2,
    "RT": 2091,
    "action": 1,
    "reward": -2.6
  },
  {
    "phase": "TASK",
    "condition": "Cond2",
    "trial_num": 62,
    "trial_length": 6,
    "click_num": 3,
    "RT": 1565,
    "action": 1,
    "reward": -2.7
  },
  {
    "phase": "TASK",
    "condition": "Cond2",
    "trial_num": 62,
    "trial_length": 6,
    "click_num": 4,
    "RT": 2759,
    "action": 0,
    "reward": -2.6
  },
  {
    "phase": "TASK",
    "condition": "Cond2",
    "trial_num": 62,
    "trial_length": 6,
    "click_num": 5,
    "RT": 883,
    "action": 0,
    "reward": -2.6
  },
  {
    "phase": "TASK",
    "condition": "Cond2",
    "trial_num": 62,
    "trial_length": 6,
    "click_num": 6,
    "RT": 1397,
    "action": 0,
    "reward": -2.6
  },
  {
    "phase": "TASK",
    "condition": "Cond2",
    "trial_num": 63,
    "trial_length": 10,
    "click_num": 1,
    "RT": 1117,
    "action": 1,
    "reward": -3.2
  },
  {
    "phase": "TASK",
    "condition": "Cond2",
    "trial_num": 63,
    "trial_length": 10,
    "click_num": 2,
    "RT": 1217,
    "action": 1,
    "reward": -2.2
  },
  {
    "phase": "TASK",
    "condition": "Cond2",
    "trial_num": 63,
    "trial_length": 10,
    "click_num": 3,
    "RT": 1386,
    "action": 0,
    "reward": -2.2
  },
  {
    "phase": "TASK",
    "condition": "Cond2",
    "trial_num": 63,
    "trial_length": 10,
    "click_num": 4,
    "RT": 1293,
    "action": 1,
    "reward": -3.6
  },
  {
    "phase": "TASK",
    "condition": "Cond2",
    "trial_num": 63,
    "trial_length": 10,
    "click_num": 5,
    "RT": 721,
    "action": 0,
    "reward": -2.2
  },
  {
    "phase": "TASK",
    "condition": "Cond2",
    "trial_num": 63,
    "trial_length": 10,
    "click_num": 6,
    "RT": 554,
    "action": 0,
    "reward": -2.2
  },
  {
    "phase": "TASK",
    "condition": "Cond2",
    "trial_num": 63,
    "trial_length": 10,
    "click_num": 7,
    "RT": 653,
    "action": 0,
    "reward": -2.2
  },
  {
    "phase": "TASK",
    "condition": "Cond2",
    "trial_num": 63,
    "trial_length": 10,
    "click_num": 8,
    "RT": 616,
    "action": 0,
    "reward": -2.2
  },
  {
    "phase": "TASK",
    "condition": "Cond2",
    "trial_num": 63,
    "trial_length": 10,
    "click_num": 9,
    "RT": 657,
    "action": 0,
    "reward": -2.2
  },
  {
    "phase": "TASK",
    "condition": "Cond2",
    "trial_num": 63,
    "trial_length": 10,
    "click_num": 10,
    "RT": 1023,
    "action": 0,
    "reward": -2.2
  },
  {
    "phase": "TASK",
    "condition": "Cond2",
    "trial_num": 64,
    "trial_length": 6,
    "click_num": 1,
    "RT": 1061,
    "action": 1,
    "reward": -3.2
  },
  {
    "phase": "TASK",
    "condition": "Cond2",
    "trial_num": 64,
    "trial_length": 6,
    "click_num": 2,
    "RT": 1380,
    "action": 1,
    "reward": -2.8
  },
  {
    "phase": "TASK",
    "condition": "Cond2",
    "trial_num": 64,
    "trial_length": 6,
    "click_num": 3,
    "RT": 1053,
    "action": 1,
    "reward": -3.2
  },
  {
    "phase": "TASK",
    "condition": "Cond2",
    "trial_num": 64,
    "trial_length": 6,
    "click_num": 4,
    "RT": 1808,
    "action": 1,
    "reward": -4
  },
  {
    "phase": "TASK",
    "condition": "Cond2",
    "trial_num": 64,
    "trial_length": 6,
    "click_num": 5,
    "RT": 1786,
    "action": 1,
    "reward": -3.8
  },
  {
    "phase": "TASK",
    "condition": "Cond2",
    "trial_num": 64,
    "trial_length": 6,
    "click_num": 6,
    "RT": 1142,
    "action": 0,
    "reward": -2.8
  },
  {
    "phase": "TASK",
    "condition": "Cond2",
    "trial_num": 65,
    "trial_length": 10,
    "click_num": 1,
    "RT": 1079,
    "action": 1,
    "reward": -3.2
  },
  {
    "phase": "TASK",
    "condition": "Cond2",
    "trial_num": 65,
    "trial_length": 10,
    "click_num": 2,
    "RT": 1282,
    "action": 1,
    "reward": -3.3
  },
  {
    "phase": "TASK",
    "condition": "Cond2",
    "trial_num": 65,
    "trial_length": 10,
    "click_num": 3,
    "RT": 936,
    "action": 1,
    "reward": -3.4
  },
  {
    "phase": "TASK",
    "condition": "Cond2",
    "trial_num": 65,
    "trial_length": 10,
    "click_num": 4,
    "RT": 1117,
    "action": 1,
    "reward": -1.8
  },
  {
    "phase": "TASK",
    "condition": "Cond2",
    "trial_num": 65,
    "trial_length": 10,
    "click_num": 5,
    "RT": 1280,
    "action": 0,
    "reward": -1.8
  },
  {
    "phase": "TASK",
    "condition": "Cond2",
    "trial_num": 65,
    "trial_length": 10,
    "click_num": 6,
    "RT": 643,
    "action": 0,
    "reward": -1.8
  },
  {
    "phase": "TASK",
    "condition": "Cond2",
    "trial_num": 65,
    "trial_length": 10,
    "click_num": 7,
    "RT": 804,
    "action": 0,
    "reward": -1.8
  },
  {
    "phase": "TASK",
    "condition": "Cond2",
    "trial_num": 65,
    "trial_length": 10,
    "click_num": 8,
    "RT": 665,
    "action": 0,
    "reward": -1.8
  },
  {
    "phase": "TASK",
    "condition": "Cond2",
    "trial_num": 65,
    "trial_length": 10,
    "click_num": 9,
    "RT": 1431,
    "action": 0,
    "reward": -1.8
  },
  {
    "phase": "TASK",
    "condition": "Cond2",
    "trial_num": 65,
    "trial_length": 10,
    "click_num": 10,
    "RT": 753,
    "action": 0,
    "reward": -1.8
  },
  {
    "phase": "TASK",
    "condition": "Cond2",
    "trial_num": 66,
    "trial_length": 7,
    "click_num": 1,
    "RT": 1262,
    "action": 1,
    "reward": -3.5
  },
  {
    "phase": "TASK",
    "condition": "Cond2",
    "trial_num": 66,
    "trial_length": 7,
    "click_num": 2,
    "RT": 1395,
    "action": 1,
    "reward": -2.9
  },
  {
    "phase": "TASK",
    "condition": "Cond2",
    "trial_num": 66,
    "trial_length": 7,
    "click_num": 3,
    "RT": 1469,
    "action": 1,
    "reward": -2.9
  },
  {
    "phase": "TASK",
    "condition": "Cond2",
    "trial_num": 66,
    "trial_length": 7,
    "click_num": 4,
    "RT": 1454,
    "action": 1,
    "reward": -2.5
  },
  {
    "phase": "TASK",
    "condition": "Cond2",
    "trial_num": 66,
    "trial_length": 7,
    "click_num": 5,
    "RT": 1557,
    "action": 1,
    "reward": -3.3
  },
  {
    "phase": "TASK",
    "condition": "Cond2",
    "trial_num": 66,
    "trial_length": 7,
    "click_num": 6,
    "RT": 1710,
    "action": 0,
    "reward": -2.5
  },
  {
    "phase": "TASK",
    "condition": "Cond2",
    "trial_num": 66,
    "trial_length": 7,
    "click_num": 7,
    "RT": 695,
    "action": 0,
    "reward": -2.5
  },
  {
    "phase": "TASK",
    "condition": "Cond2",
    "trial_num": 67,
    "trial_length": 9,
    "click_num": 1,
    "RT": 963,
    "action": 1,
    "reward": -2.6
  },
  {
    "phase": "TASK",
    "condition": "Cond2",
    "trial_num": 67,
    "trial_length": 9,
    "click_num": 2,
    "RT": 1480,
    "action": 1,
    "reward": -2.1
  },
  {
    "phase": "TASK",
    "condition": "Cond2",
    "trial_num": 67,
    "trial_length": 9,
    "click_num": 3,
    "RT": 1304,
    "action": 0,
    "reward": -2.1
  },
  {
    "phase": "TASK",
    "condition": "Cond2",
    "trial_num": 67,
    "trial_length": 9,
    "click_num": 4,
    "RT": 1136,
    "action": 0,
    "reward": -2.1
  },
  {
    "phase": "TASK",
    "condition": "Cond2",
    "trial_num": 67,
    "trial_length": 9,
    "click_num": 5,
    "RT": 743,
    "action": 0,
    "reward": -2.1
  },
  {
    "phase": "TASK",
    "condition": "Cond2",
    "trial_num": 67,
    "trial_length": 9,
    "click_num": 6,
    "RT": 712,
    "action": 0,
    "reward": -2.1
  },
  {
    "phase": "TASK",
    "condition": "Cond2",
    "trial_num": 67,
    "trial_length": 9,
    "click_num": 7,
    "RT": 1002,
    "action": 0,
    "reward": -2.1
  },
  {
    "phase": "TASK",
    "condition": "Cond2",
    "trial_num": 67,
    "trial_length": 9,
    "click_num": 8,
    "RT": 855,
    "action": 0,
    "reward": -2.1
  },
  {
    "phase": "TASK",
    "condition": "Cond2",
    "trial_num": 67,
    "trial_length": 9,
    "click_num": 9,
    "RT": 680,
    "action": 0,
    "reward": -2.1
  },
  {
    "phase": "TASK",
    "condition": "Cond2",
    "trial_num": 68,
    "trial_length": 9,
    "click_num": 1,
    "RT": 1015,
    "action": 1,
    "reward": -3.1
  },
  {
    "phase": "TASK",
    "condition": "Cond2",
    "trial_num": 68,
    "trial_length": 9,
    "click_num": 2,
    "RT": 968,
    "action": 1,
    "reward": -3
  },
  {
    "phase": "TASK",
    "condition": "Cond2",
    "trial_num": 68,
    "trial_length": 9,
    "click_num": 3,
    "RT": 969,
    "action": 1,
    "reward": -2.7
  },
  {
    "phase": "TASK",
    "condition": "Cond2",
    "trial_num": 68,
    "trial_length": 9,
    "click_num": 4,
    "RT": 1199,
    "action": 1,
    "reward": -3
  },
  {
    "phase": "TASK",
    "condition": "Cond2",
    "trial_num": 68,
    "trial_length": 9,
    "click_num": 5,
    "RT": 1185,
    "action": 1,
    "reward": -2.8
  },
  {
    "phase": "TASK",
    "condition": "Cond2",
    "trial_num": 68,
    "trial_length": 9,
    "click_num": 6,
    "RT": 1648,
    "action": 1,
    "reward": -2.9
  },
  {
    "phase": "TASK",
    "condition": "Cond2",
    "trial_num": 68,
    "trial_length": 9,
    "click_num": 7,
    "RT": 1568,
    "action": 1,
    "reward": -3.6
  },
  {
    "phase": "TASK",
    "condition": "Cond2",
    "trial_num": 68,
    "trial_length": 9,
    "click_num": 8,
    "RT": 1282,
    "action": 0,
    "reward": -2.7
  },
  {
    "phase": "TASK",
    "condition": "Cond2",
    "trial_num": 68,
    "trial_length": 9,
    "click_num": 9,
    "RT": 718,
    "action": 0,
    "reward": -2.7
  },
  {
    "phase": "TASK",
    "condition": "Cond2",
    "trial_num": 69,
    "trial_length": 10,
    "click_num": 1,
    "RT": 990,
    "action": 1,
    "reward": -2.7
  },
  {
    "phase": "TASK",
    "condition": "Cond2",
    "trial_num": 69,
    "trial_length": 10,
    "click_num": 2,
    "RT": 1463,
    "action": 1,
    "reward": -2.4
  },
  {
    "phase": "TASK",
    "condition": "Cond2",
    "trial_num": 69,
    "trial_length": 10,
    "click_num": 3,
    "RT": 1081,
    "action": 1,
    "reward": -3.2
  },
  {
    "phase": "TASK",
    "condition": "Cond2",
    "trial_num": 69,
    "trial_length": 10,
    "click_num": 4,
    "RT": 1159,
    "action": 1,
    "reward": -3.1
  },
  {
    "phase": "TASK",
    "condition": "Cond2",
    "trial_num": 69,
    "trial_length": 10,
    "click_num": 5,
    "RT": 2361,
    "action": 1,
    "reward": -4.2
  },
  {
    "phase": "TASK",
    "condition": "Cond2",
    "trial_num": 69,
    "trial_length": 10,
    "click_num": 6,
    "RT": 1527,
    "action": 0,
    "reward": -2.4
  },
  {
    "phase": "TASK",
    "condition": "Cond2",
    "trial_num": 69,
    "trial_length": 10,
    "click_num": 7,
    "RT": 656,
    "action": 0,
    "reward": -2.4
  },
  {
    "phase": "TASK",
    "condition": "Cond2",
    "trial_num": 69,
    "trial_length": 10,
    "click_num": 8,
    "RT": 640,
    "action": 0,
    "reward": -2.4
  },
  {
    "phase": "TASK",
    "condition": "Cond2",
    "trial_num": 69,
    "trial_length": 10,
    "click_num": 9,
    "RT": 1072,
    "action": 0,
    "reward": -2.4
  },
  {
    "phase": "TASK",
    "condition": "Cond2",
    "trial_num": 69,
    "trial_length": 10,
    "click_num": 10,
    "RT": 904,
    "action": 0,
    "reward": -2.4
  },
  {
    "phase": "TASK",
    "condition": "Cond2",
    "trial_num": 70,
    "trial_length": 7,
    "click_num": 1,
    "RT": 1189,
    "action": 1,
    "reward": -2.5
  },
  {
    "phase": "TASK",
    "condition": "Cond2",
    "trial_num": 70,
    "trial_length": 7,
    "click_num": 2,
    "RT": 1656,
    "action": 1,
    "reward": -3.4
  },
  {
    "phase": "TASK",
    "condition": "Cond2",
    "trial_num": 70,
    "trial_length": 7,
    "click_num": 3,
    "RT": 1208,
    "action": 1,
    "reward": -2.7
  },
  {
    "phase": "TASK",
    "condition": "Cond2",
    "trial_num": 70,
    "trial_length": 7,
    "click_num": 4,
    "RT": 1079,
    "action": 0,
    "reward": -2.5
  },
  {
    "phase": "TASK",
    "condition": "Cond2",
    "trial_num": 70,
    "trial_length": 7,
    "click_num": 5,
    "RT": 1025,
    "action": 0,
    "reward": -2.5
  },
  {
    "phase": "TASK",
    "condition": "Cond2",
    "trial_num": 70,
    "trial_length": 7,
    "click_num": 6,
    "RT": 1001,
    "action": 0,
    "reward": -2.5
  },
  {
    "phase": "TASK",
    "condition": "Cond2",
    "trial_num": 70,
    "trial_length": 7,
    "click_num": 7,
    "RT": 1103,
    "action": 0,
    "reward": -2.5
  },
  {
    "phase": "TASK",
    "condition": "Cond2",
    "trial_num": 71,
    "trial_length": 5,
    "click_num": 1,
    "RT": 941,
    "action": 1,
    "reward": -2.9
  },
  {
    "phase": "TASK",
    "condition": "Cond2",
    "trial_num": 71,
    "trial_length": 5,
    "click_num": 2,
    "RT": 1248,
    "action": 1,
    "reward": -2.9
  },
  {
    "phase": "TASK",
    "condition": "Cond2",
    "trial_num": 71,
    "trial_length": 5,
    "click_num": 3,
    "RT": 1287,
    "action": 1,
    "reward": -4.2
  },
  {
    "phase": "TASK",
    "condition": "Cond2",
    "trial_num": 71,
    "trial_length": 5,
    "click_num": 4,
    "RT": 1449,
    "action": 1,
    "reward": -3.1
  },
  {
    "phase": "TASK",
    "condition": "Cond2",
    "trial_num": 71,
    "trial_length": 5,
    "click_num": 5,
    "RT": 1056,
    "action": 0,
    "reward": -2.9
  },
  {
    "phase": "TASK",
    "condition": "Cond2",
    "trial_num": 72,
    "trial_length": 7,
    "click_num": 1,
    "RT": 1030,
    "action": 1,
    "reward": -2.4
  },
  {
    "phase": "TASK",
    "condition": "Cond2",
    "trial_num": 72,
    "trial_length": 7,
    "click_num": 2,
    "RT": 1677,
    "action": 1,
    "reward": -3.4
  },
  {
    "phase": "TASK",
    "condition": "Cond2",
    "trial_num": 72,
    "trial_length": 7,
    "click_num": 3,
    "RT": 1304,
    "action": 1,
    "reward": -3
  },
  {
    "phase": "TASK",
    "condition": "Cond2",
    "trial_num": 72,
    "trial_length": 7,
    "click_num": 4,
    "RT": 1758,
    "action": 1,
    "reward": -3
  },
  {
    "phase": "TASK",
    "condition": "Cond2",
    "trial_num": 72,
    "trial_length": 7,
    "click_num": 5,
    "RT": 1602,
    "action": 1,
    "reward": -2.9
  },
  {
    "phase": "TASK",
    "condition": "Cond2",
    "trial_num": 72,
    "trial_length": 7,
    "click_num": 6,
    "RT": 2289,
    "action": 1,
    "reward": -2.5
  },
  {
    "phase": "TASK",
    "condition": "Cond2",
    "trial_num": 72,
    "trial_length": 7,
    "click_num": 7,
    "RT": 1526,
    "action": 0,
    "reward": -2.4
  },
  {
    "phase": "TASK",
    "condition": "Cond2",
    "trial_num": 73,
    "trial_length": 10,
    "click_num": 1,
    "RT": 1528,
    "action": 1,
    "reward": -2.8
  },
  {
    "phase": "TASK",
    "condition": "Cond2",
    "trial_num": 73,
    "trial_length": 10,
    "click_num": 2,
    "RT": 1576,
    "action": 1,
    "reward": -2.4
  },
  {
    "phase": "TASK",
    "condition": "Cond2",
    "trial_num": 73,
    "trial_length": 10,
    "click_num": 3,
    "RT": 1231,
    "action": 1,
    "reward": -2.2
  },
  {
    "phase": "TASK",
    "condition": "Cond2",
    "trial_num": 73,
    "trial_length": 10,
    "click_num": 4,
    "RT": 1248,
    "action": 1,
    "reward": -3.5
  },
  {
    "phase": "TASK",
    "condition": "Cond2",
    "trial_num": 73,
    "trial_length": 10,
    "click_num": 5,
    "RT": 1104,
    "action": 0,
    "reward": -2.2
  },
  {
    "phase": "TASK",
    "condition": "Cond2",
    "trial_num": 73,
    "trial_length": 10,
    "click_num": 6,
    "RT": 672,
    "action": 0,
    "reward": -2.2
  },
  {
    "phase": "TASK",
    "condition": "Cond2",
    "trial_num": 73,
    "trial_length": 10,
    "click_num": 7,
    "RT": 689,
    "action": 0,
    "reward": -2.2
  },
  {
    "phase": "TASK",
    "condition": "Cond2",
    "trial_num": 73,
    "trial_length": 10,
    "click_num": 8,
    "RT": 615,
    "action": 0,
    "reward": -2.2
  },
  {
    "phase": "TASK",
    "condition": "Cond2",
    "trial_num": 73,
    "trial_length": 10,
    "click_num": 9,
    "RT": 656,
    "action": 0,
    "reward": -2.2
  },
  {
    "phase": "TASK",
    "condition": "Cond2",
    "trial_num": 73,
    "trial_length": 10,
    "click_num": 10,
    "RT": 737,
    "action": 0,
    "reward": -2.2
  },
  {
    "phase": "TASK",
    "condition": "Cond2",
    "trial_num": 74,
    "trial_length": 8,
    "click_num": 1,
    "RT": 1066,
    "action": 1,
    "reward": -3.1
  },
  {
    "phase": "TASK",
    "condition": "Cond2",
    "trial_num": 74,
    "trial_length": 8,
    "click_num": 2,
    "RT": 1024,
    "action": 1,
    "reward": -3.1
  },
  {
    "phase": "TASK",
    "condition": "Cond2",
    "trial_num": 74,
    "trial_length": 8,
    "click_num": 3,
    "RT": 1047,
    "action": 1,
    "reward": -2.6
  },
  {
    "phase": "TASK",
    "condition": "Cond2",
    "trial_num": 74,
    "trial_length": 8,
    "click_num": 4,
    "RT": 1175,
    "action": 1,
    "reward": -2.6
  },
  {
    "phase": "TASK",
    "condition": "Cond2",
    "trial_num": 74,
    "trial_length": 8,
    "click_num": 5,
    "RT": 1034,
    "action": 1,
    "reward": -2.6
  },
  {
    "phase": "TASK",
    "condition": "Cond2",
    "trial_num": 74,
    "trial_length": 8,
    "click_num": 6,
    "RT": 1095,
    "action": 1,
    "reward": -1.9
  },
  {
    "phase": "TASK",
    "condition": "Cond2",
    "trial_num": 74,
    "trial_length": 8,
    "click_num": 7,
    "RT": 2329,
    "action": 0,
    "reward": -1.9
  },
  {
    "phase": "TASK",
    "condition": "Cond2",
    "trial_num": 74,
    "trial_length": 8,
    "click_num": 8,
    "RT": 911,
    "action": 0,
    "reward": -1.9
  },
  {
    "phase": "TASK",
    "condition": "Cond2",
    "trial_num": 75,
    "trial_length": 10,
    "click_num": 1,
    "RT": 1036,
    "action": 1,
    "reward": -3
  },
  {
    "phase": "TASK",
    "condition": "Cond2",
    "trial_num": 75,
    "trial_length": 10,
    "click_num": 2,
    "RT": 1218,
    "action": 1,
    "reward": -3.7
  },
  {
    "phase": "TASK",
    "condition": "Cond2",
    "trial_num": 75,
    "trial_length": 10,
    "click_num": 3,
    "RT": 1038,
    "action": 1,
    "reward": -2.8
  },
  {
    "phase": "TASK",
    "condition": "Cond2",
    "trial_num": 75,
    "trial_length": 10,
    "click_num": 4,
    "RT": 968,
    "action": 1,
    "reward": -4
  },
  {
    "phase": "TASK",
    "condition": "Cond2",
    "trial_num": 75,
    "trial_length": 10,
    "click_num": 5,
    "RT": 1208,
    "action": 1,
    "reward": -3.3
  },
  {
    "phase": "TASK",
    "condition": "Cond2",
    "trial_num": 75,
    "trial_length": 10,
    "click_num": 6,
    "RT": 1505,
    "action": 1,
    "reward": -2.9
  },
  {
    "phase": "TASK",
    "condition": "Cond2",
    "trial_num": 75,
    "trial_length": 10,
    "click_num": 7,
    "RT": 1183,
    "action": 1,
    "reward": -3.7
  },
  {
    "phase": "TASK",
    "condition": "Cond2",
    "trial_num": 75,
    "trial_length": 10,
    "click_num": 8,
    "RT": 1495,
    "action": 1,
    "reward": -2.6
  },
  {
    "phase": "TASK",
    "condition": "Cond2",
    "trial_num": 75,
    "trial_length": 10,
    "click_num": 9,
    "RT": 1521,
    "action": 0,
    "reward": -2.6
  },
  {
    "phase": "TASK",
    "condition": "Cond2",
    "trial_num": 75,
    "trial_length": 10,
    "click_num": 10,
    "RT": 704,
    "action": 0,
    "reward": -2.6
  },
  {
    "phase": "TASK",
    "condition": "Cond2",
    "trial_num": 76,
    "trial_length": 10,
    "click_num": 1,
    "RT": 1224,
    "action": 1,
    "reward": -4.1
  },
  {
    "phase": "TASK",
    "condition": "Cond2",
    "trial_num": 76,
    "trial_length": 10,
    "click_num": 2,
    "RT": 1128,
    "action": 1,
    "reward": -3.7
  },
  {
    "phase": "TASK",
    "condition": "Cond2",
    "trial_num": 76,
    "trial_length": 10,
    "click_num": 3,
    "RT": 1009,
    "action": 1,
    "reward": -3.2
  },
  {
    "phase": "TASK",
    "condition": "Cond2",
    "trial_num": 76,
