[
  {
    "phase": "TASK",
    "condition": "Cond2",
    "trial_num": 1,
    "trial_length": 9,
    "click_num": 1,
    "RT": 5799,
    "action": 1,
    "reward": -3.6
  },
  {
    "phase": "TASK",
    "condition": "Cond2",
    "trial_num": 1,
    "trial_length": 9,
    "click_num": 2,
    "RT": 4142,
    "action": 1,
    "reward": -2.2
  },
  {
    "phase": "TASK",
    "condition": "Cond2",
    "trial_num": 1,
    "trial_length": 9,
    "click_num": 3,
    "RT": 4136,
    "action": 1,
    "reward": -4.2
  },
  {
    "phase": "TASK",
    "condition": "Cond2",
    "trial_num": 1,
    "trial_length": 9,
    "click_num": 4,
    "RT": 4336,
    "action": 0,
    "reward": -2.2
  },
  {
    "phase": "TASK",
    "condition": "Cond2",
    "trial_num": 1,
    "trial_length": 9,
    "click_num": 5,
    "RT": 5168,
    "action": 0,
    "reward": -2.2
  },
  {
    "phase": "TASK",
    "condition": "Cond2",
    "trial_num": 1,
    "trial_length": 9,
    "click_num": 6,
    "RT": 2376,
    "action": 1,
    "reward": -3.3
  },
  {
    "phase": "TASK",
    "condition": "Cond2",
    "trial_num": 1,
    "trial_length": 9,
    "click_num": 7,
    "RT": 4898,
    "action": 1,
    "reward": -2.8
  },
  {
    "phase": "TASK",
    "condition": "Cond2",
    "trial_num": 1,
    "trial_length": 9,
    "click_num": 8,
    "RT": 3470,
    "action": 1,
    "reward": -2.6
  },
  {
    "phase": "TASK",
    "condition": "Cond2",
    "trial_num": 1,
    "trial_length": 9,
    "click_num": 9,
    "RT": 3487,
    "action": 0,
    "reward": -2.2
  },
  {
    "phase": "TASK",
    "condition": "Cond2",
    "trial_num": 2,
    "trial_length": 10,
    "click_num": 1,
    "RT": 3710,
    "action": 1,
    "reward": -2.5
  },
  {
    "phase": "TASK",
    "condition": "Cond2",
    "trial_num": 2,
    "trial_length": 10,
    "click_num": 2,
    "RT": 3911,
    "action": 1,
    "reward": -4.1
  },
  {
    "phase": "TASK",
    "condition": "Cond2",
    "trial_num": 2,
    "trial_length": 10,
    "click_num": 3,
    "RT": 2984,
    "action": 0,
    "reward": -2.5
  },
  {
    "phase": "TASK",
    "condition": "Cond2",
    "trial_num": 2,
    "trial_length": 10,
    "click_num": 4,
    "RT": 1608,
    "action": 1,
    "reward": -2.5
  },
  {
    "phase": "TASK",
    "condition": "Cond2",
    "trial_num": 2,
    "trial_length": 10,
    "click_num": 5,
    "RT": 2106,
    "action": 1,
    "reward": -3.5
  },
  {
    "phase": "TASK",
    "condition": "Cond2",
    "trial_num": 2,
    "trial_length": 10,
    "click_num": 6,
    "RT": 3230,
    "action": 0,
    "reward": -2.5
  },
  {
    "phase": "TASK",
    "condition": "Cond2",
    "trial_num": 2,
    "trial_length": 10,
    "click_num": 7,
    "RT": 2152,
    "action": 1,
    "reward": -3.5
  },
  {
    "phase": "TASK",
    "condition": "Cond2",
    "trial_num": 2,
    "trial_length": 10,
    "click_num": 8,
    "RT": 2424,
    "action": 0,
    "reward": -2.5
  },
  {
    "phase": "TASK",
    "condition": "Cond2",
    "trial_num": 2,
    "trial_length": 10,
    "click_num": 9,
    "RT": 1840,
    "action": 0,
    "reward": -2.5
  },
  {
    "phase": "TASK",
    "condition": "Cond2",
    "trial_num": 2,
    "trial_length": 10,
    "click_num": 10,
    "RT": 1848,
    "action": 0,
    "reward": -2.5
  },
  {
    "phase": "TASK",
    "condition": "Cond2",
    "trial_num": 3,
    "trial_length": 6,
    "click_num": 1,
    "RT": 3384,
    "action": 1,
    "reward": -3.3
  },
  {
    "phase": "TASK",
    "condition": "Cond2",
    "trial_num": 3,
    "trial_length": 6,
    "click_num": 2,
    "RT": 2951,
    "action": 1,
    "reward": -3.1
  },
  {
    "phase": "TASK",
    "condition": "Cond2",
    "trial_num": 3,
    "trial_length": 6,
    "click_num": 3,
    "RT": 3449,
    "action": 1,
    "reward": -3.2
  },
  {
    "phase": "TASK",
    "condition": "Cond2",
    "trial_num": 3,
    "trial_length": 6,
    "click_num": 4,
    "RT": 3023,
    "action": 1,
    "reward": -3.8
  },
  {
    "phase": "TASK",
    "condition": "Cond2",
    "trial_num": 3,
    "trial_length": 6,
    "click_num": 5,
    "RT": 2760,
    "action": 0,
    "reward": -3.1
  },
  {
    "phase": "TASK",
    "condition": "Cond2",
    "trial_num": 3,
    "trial_length": 6,
    "click_num": 6,
    "RT": 1288,
    "action": 1,
    "reward": -3
  },
  {
    "phase": "TASK",
    "condition": "Cond2",
    "trial_num": 4,
    "trial_length": 6,
    "click_num": 1,
    "RT": 2727,
    "action": 1,
    "reward": -3.3
  },
  {
    "phase": "TASK",
    "condition": "Cond2",
    "trial_num": 4,
    "trial_length": 6,
    "click_num": 2,
    "RT": 2082,
    "action": 1,
    "reward": -3.5
  },
  {
    "phase": "TASK",
    "condition": "Cond2",
    "trial_num": 4,
    "trial_length": 6,
    "click_num": 3,
    "RT": 2126,
    "action": 1,
    "reward": -3
  },
  {
    "phase": "TASK",
    "condition": "Cond2",
    "trial_num": 4,
    "trial_length": 6,
    "click_num": 4,
    "RT": 2848,
    "action": 1,
    "reward": -2.6
  },
  {
    "phase": "TASK",
    "condition": "Cond2",
    "trial_num": 4,
    "trial_length": 6,
    "click_num": 5,
    "RT": 2584,
    "action": 0,
    "reward": -2.6
  },
  {
    "phase": "TASK",
    "condition": "Cond2",
    "trial_num": 4,
    "trial_length": 6,
    "click_num": 6,
    "RT": 2689,
    "action": 0,
    "reward": -2.6
  },
  {
    "phase": "TASK",
    "condition": "Cond2",
    "trial_num": 5,
    "trial_length": 7,
    "click_num": 1,
    "RT": 5366,
    "action": 1,
    "reward": -2.6
  },
  {
    "phase": "TASK",
    "condition": "Cond2",
    "trial_num": 5,
    "trial_length": 7,
    "click_num": 2,
    "RT": 4288,
    "action": 1,
    "reward": -3.4
  },
  {
    "phase": "TASK",
    "condition": "Cond2",
    "trial_num": 5,
    "trial_length": 7,
    "click_num": 3,
    "RT": 2784,
    "action": 1,
    "reward": -3
  },
  {
    "phase": "TASK",
    "condition": "Cond2",
    "trial_num": 5,
    "trial_length": 7,
    "click_num": 4,
    "RT": 2104,
    "action": 1,
    "reward": -2.8
  },
  {
    "phase": "TASK",
    "condition": "Cond2",
    "trial_num": 5,
    "trial_length": 7,
    "click_num": 5,
    "RT": 2175,
    "action": 1,
    "reward": -3.7
  },
  {
    "phase": "TASK",
    "condition": "Cond2",
    "trial_num": 5,
    "trial_length": 7,
    "click_num": 6,
    "RT": 1896,
    "action": 0,
    "reward": -2.6
  },
  {
    "phase": "TASK",
    "condition": "Cond2",
    "trial_num": 5,
    "trial_length": 7,
    "click_num": 7,
    "RT": 8112,
    "action": 0,
    "reward": -2.6
  },
  {
    "phase": "TASK",
    "condition": "Cond2",
    "trial_num": 6,
    "trial_length": 10,
    "click_num": 1,
    "RT": 4125,
    "action": 1,
    "reward": -3.6
  },
  {
    "phase": "TASK",
    "condition": "Cond2",
    "trial_num": 6,
    "trial_length": 10,
    "click_num": 2,
    "RT": 2273,
    "action": 1,
    "reward": -2.7
  },
  {
    "phase": "TASK",
    "condition": "Cond2",
    "trial_num": 6,
    "trial_length": 10,
    "click_num": 3,
    "RT": 2741,
    "action": 1,
    "reward": -2.9
  },
  {
    "phase": "TASK",
    "condition": "Cond2",
    "trial_num": 6,
    "trial_length": 10,
    "click_num": 4,
    "RT": 2315,
    "action": 0,
    "reward": -2.7
  },
  {
    "phase": "TASK",
    "condition": "Cond2",
    "trial_num": 6,
    "trial_length": 10,
    "click_num": 5,
    "RT": 1839,
    "action": 1,
    "reward": -3.7
  },
  {
    "phase": "TASK",
    "condition": "Cond2",
    "trial_num": 6,
    "trial_length": 10,
    "click_num": 6,
    "RT": 2264,
    "action": 0,
    "reward": -2.7
  },
  {
    "phase": "TASK",
    "condition": "Cond2",
    "trial_num": 6,
    "trial_length": 10,
    "click_num": 7,
    "RT": 3737,
    "action": 1,
    "reward": -3.2
  },
  {
    "phase": "TASK",
    "condition": "Cond2",
    "trial_num": 6,
    "trial_length": 10,
    "click_num": 8,
    "RT": 2143,
    "action": 0,
    "reward": -2.7
  },
  {
    "phase": "TASK",
    "condition": "Cond2",
    "trial_num": 6,
    "trial_length": 10,
    "click_num": 9,
    "RT": 1512,
    "action": 0,
    "reward": -2.7
  },
  {
    "phase": "TASK",
    "condition": "Cond2",
    "trial_num": 6,
    "trial_length": 10,
    "click_num": 10,
    "RT": 1552,
    "action": 0,
    "reward": -2.7
  },
  {
    "phase": "TASK",
    "condition": "Cond2",
    "trial_num": 7,
    "trial_length": 6,
    "click_num": 1,
    "RT": 3124,
    "action": 1,
    "reward": -2.8
  },
  {
    "phase": "TASK",
    "condition": "Cond2",
    "trial_num": 7,
    "trial_length": 6,
    "click_num": 2,
    "RT": 3299,
    "action": 1,
    "reward": -3.4
  },
  {
    "phase": "TASK",
    "condition": "Cond2",
    "trial_num": 7,
    "trial_length": 6,
    "click_num": 3,
    "RT": 2470,
    "action": 1,
    "reward": -2.4
  },
  {
    "phase": "TASK",
    "condition": "Cond2",
    "trial_num": 7,
    "trial_length": 6,
    "click_num": 4,
    "RT": 3127,
    "action": 0,
    "reward": -2.4
  },
  {
    "phase": "TASK",
    "condition": "Cond2",
    "trial_num": 7,
    "trial_length": 6,
    "click_num": 5,
    "RT": 1926,
    "action": 0,
    "reward": -2.4
  },
  {
    "phase": "TASK",
    "condition": "Cond2",
    "trial_num": 7,
    "trial_length": 6,
    "click_num": 6,
    "RT": 1642,
    "action": 0,
    "reward": -2.4
  },
  {
    "phase": "TASK",
    "condition": "Cond2",
    "trial_num": 8,
    "trial_length": 10,
    "click_num": 1,
    "RT": 3255,
    "action": 1,
    "reward": -2.7
  },
  {
    "phase": "TASK",
    "condition": "Cond2",
    "trial_num": 8,
    "trial_length": 10,
    "click_num": 2,
    "RT": 6665,
    "action": 1,
    "reward": -3.4
  },
  {
    "phase": "TASK",
    "condition": "Cond2",
    "trial_num": 8,
    "trial_length": 10,
    "click_num": 3,
    "RT": 1911,
    "action": 1,
    "reward": -4.8
  },
  {
    "phase": "TASK",
    "condition": "Cond2",
    "trial_num": 8,
    "trial_length": 10,
    "click_num": 4,
    "RT": 2488,
    "action": 1,
    "reward": -2.9
  },
  {
    "phase": "TASK",
    "condition": "Cond2",
    "trial_num": 8,
    "trial_length": 10,
    "click_num": 5,
    "RT": 2111,
    "action": 1,
    "reward": -3.5
  },
  {
    "phase": "TASK",
    "condition": "Cond2",
    "trial_num": 8,
    "trial_length": 10,
    "click_num": 6,
    "RT": 1633,
    "action": 1,
    "reward": -2.7
  },
  {
    "phase": "TASK",
    "condition": "Cond2",
    "trial_num": 8,
    "trial_length": 10,
    "click_num": 7,
    "RT": 2112,
    "action": 1,
    "reward": -3.2
  },
  {
    "phase": "TASK",
    "condition": "Cond2",
    "trial_num": 8,
    "trial_length": 10,
    "click_num": 8,
    "RT": 1768,
    "action": 0,
    "reward": -2.7
  },
  {
    "phase": "TASK",
    "condition": "Cond2",
    "trial_num": 8,
    "trial_length": 10,
    "click_num": 9,
    "RT": 1592,
    "action": 1,
    "reward": -3.4
  },
  {
    "phase": "TASK",
    "condition": "Cond2",
    "trial_num": 8,
    "trial_length": 10,
    "click_num": 10,
    "RT": 2288,
    "action": 1,
    "reward": -2.2
  },
  {
    "phase": "TASK",
    "condition": "Cond2",
    "trial_num": 9,
    "trial_length": 6,
    "click_num": 1,
    "RT": 3011,
    "action": 1,
    "reward": -2.9
  },
  {
    "phase": "TASK",
    "condition": "Cond2",
    "trial_num": 9,
    "trial_length": 6,
    "click_num": 2,
    "RT": 2133,
    "action": 1,
    "reward": -3.4
  },
  {
    "phase": "TASK",
    "condition": "Cond2",
    "trial_num": 9,
    "trial_length": 6,
    "click_num": 3,
    "RT": 1936,
    "action": 1,
    "reward": -3.3
  },
  {
    "phase": "TASK",
    "condition": "Cond2",
    "trial_num": 9,
    "trial_length": 6,
    "click_num": 4,
    "RT": 1729,
    "action": 1,
    "reward": -2.8
  },
  {
    "phase": "TASK",
    "condition": "Cond2",
    "trial_num": 9,
    "trial_length": 6,
    "click_num": 5,
    "RT": 1975,
    "action": 1,
    "reward": -3
  },
  {
    "phase": "TASK",
    "condition": "Cond2",
    "trial_num": 9,
    "trial_length": 6,
    "click_num": 6,
    "RT": 1883,
    "action": 1,
    "reward": -3
  },
  {
    "phase": "TASK",
    "condition": "Cond2",
    "trial_num": 10,
    "trial_length": 10,
    "click_num": 1,
    "RT": 5492,
    "action": 1,
    "reward": -2.2
  },
  {
    "phase": "TASK",
    "condition": "Cond2",
    "trial_num": 10,
    "trial_length": 10,
    "click_num": 2,
    "RT": 2537,
    "action": 0,
    "reward": -2.2
  },
  {
    "phase": "TASK",
    "condition": "Cond2",
    "trial_num": 10,
    "trial_length": 10,
    "click_num": 3,
    "RT": 1751,
    "action": 0,
    "reward": -2.2
  },
  {
    "phase": "TASK",
    "condition": "Cond2",
    "trial_num": 10,
    "trial_length": 10,
    "click_num": 4,
    "RT": 1380,
    "action": 0,
    "reward": -2.2
  },
  {
    "phase": "TASK",
    "condition": "Cond2",
    "trial_num": 10,
    "trial_length": 10,
    "click_num": 5,
    "RT": 1044,
    "action": 0,
    "reward": -2.2
  },
  {
    "phase": "TASK",
    "condition": "Cond2",
    "trial_num": 10,
    "trial_length": 10,
    "click_num": 6,
    "RT": 960,
    "action": 0,
    "reward": -2.2
  },
  {
    "phase": "TASK",
    "condition": "Cond2",
    "trial_num": 10,
    "trial_length": 10,
    "click_num": 7,
    "RT": 912,
    "action": 0,
    "reward": -2.2
  },
  {
    "phase": "TASK",
    "condition": "Cond2",
    "trial_num": 10,
    "trial_length": 10,
    "click_num": 8,
    "RT": 928,
    "action": 0,
    "reward": -2.2
  },
  {
    "phase": "TASK",
    "condition": "Cond2",
    "trial_num": 10,
    "trial_length": 10,
    "click_num": 9,
    "RT": 817,
    "action": 0,
    "reward": -2.2
  },
  {
    "phase": "TASK",
    "condition": "Cond2",
    "trial_num": 10,
    "trial_length": 10,
    "click_num": 10,
    "RT": 880,
    "action": 0,
    "reward": -2.2
  },
  {
    "phase": "TASK",
    "condition": "Cond2",
    "trial_num": 11,
    "trial_length": 6,
    "click_num": 1,
    "RT": 1631,
    "action": 1,
    "reward": -3.1
  },
  {
    "phase": "TASK",
    "condition": "Cond2",
    "trial_num": 11,
    "trial_length": 6,
    "click_num": 2,
    "RT": 2504,
    "action": 1,
    "reward": -3
  },
  {
    "phase": "TASK",
    "condition": "Cond2",
    "trial_num": 11,
    "trial_length": 6,
    "click_num": 3,
    "RT": 1160,
    "action": 1,
    "reward": -3.4
  },
  {
    "phase": "TASK",
    "condition": "Cond2",
    "trial_num": 11,
    "trial_length": 6,
    "click_num": 4,
    "RT": 1312,
    "action": 1,
    "reward": -3.6
  },
  {
    "phase": "TASK",
    "condition": "Cond2",
    "trial_num": 11,
    "trial_length": 6,
    "click_num": 5,
    "RT": 1416,
    "action": 1,
    "reward": -3.4
  },
  {
    "phase": "TASK",
    "condition": "Cond2",
    "trial_num": 11,
    "trial_length": 6,
    "click_num": 6,
    "RT": 1215,
    "action": 1,
    "reward": -1.3
  },
  {
    "phase": "TASK",
    "condition": "Cond2",
    "trial_num": 12,
    "trial_length": 9,
    "click_num": 1,
    "RT": 1807,
    "action": 1,
    "reward": -4.1
  },
  {
    "phase": "TASK",
    "condition": "Cond2",
    "trial_num": 12,
    "trial_length": 9,
    "click_num": 2,
    "RT": 2136,
    "action": 1,
    "reward": -2.5
  },
  {
    "phase": "TASK",
    "condition": "Cond2",
    "trial_num": 12,
    "trial_length": 9,
    "click_num": 3,
    "RT": 1880,
    "action": 0,
    "reward": -2.5
  },
  {
    "phase": "TASK",
    "condition": "Cond2",
    "trial_num": 12,
    "trial_length": 9,
    "click_num": 4,
    "RT": 1199,
    "action": 1,
    "reward": -3
  },
  {
    "phase": "TASK",
    "condition": "Cond2",
    "trial_num": 12,
    "trial_length": 9,
    "click_num": 5,
    "RT": 1440,
    "action": 1,
    "reward": -4
  },
  {
    "phase": "TASK",
    "condition": "Cond2",
    "trial_num": 12,
    "trial_length": 9,
    "click_num": 6,
    "RT": 1328,
    "action": 1,
    "reward": -3
  },
  {
    "phase": "TASK",
    "condition": "Cond2",
    "trial_num": 12,
    "trial_length": 9,
    "click_num": 7,
    "RT": 1857,
    "action": 0,
    "reward": -2.5
  },
  {
    "phase": "TASK",
    "condition": "Cond2",
    "trial_num": 12,
    "trial_length": 9,
    "click_num": 8,
    "RT": 1071,
    "action": 0,
    "reward": -2.5
  },
  {
    "phase": "TASK",
    "condition": "Cond2",
    "trial_num": 12,
    "trial_length": 9,
    "click_num": 9,
    "RT": 833,
    "action": 0,
    "reward": -2.5
  },
  {
    "phase": "TASK",
    "condition": "Cond2",
    "trial_num": 13,
    "trial_length": 7,
    "click_num": 1,
    "RT": 2021,
    "action": 1,
    "reward": -3.8
  },
  {
    "phase": "TASK",
    "condition": "Cond2",
    "trial_num": 13,
    "trial_length": 7,
    "click_num": 2,
    "RT": 1584,
    "action": 1,
    "reward": -3
  },
  {
    "phase": "TASK",
    "condition": "Cond2",
    "trial_num": 13,
    "trial_length": 7,
    "click_num": 3,
    "RT": 1471,
    "action": 1,
    "reward": -2.4
  },
  {
    "phase": "TASK",
    "condition": "Cond2",
    "trial_num": 13,
    "trial_length": 7,
    "click_num": 4,
    "RT": 1769,
    "action": 0,
    "reward": -2.4
  },
  {
    "phase": "TASK",
    "condition": "Cond2",
    "trial_num": 13,
    "trial_length": 7,
    "click_num": 5,
    "RT": 1259,
    "action": 0,
    "reward": -2.4
  },
  {
    "phase": "TASK",
    "condition": "Cond2",
    "trial_num": 13,
    "trial_length": 7,
    "click_num": 6,
    "RT": 861,
    "action": 0,
    "reward": -2.4
  },
  {
    "phase": "TASK",
    "condition": "Cond2",
    "trial_num": 13,
    "trial_length": 7,
    "click_num": 7,
    "RT": 936,
    "action": 0,
    "reward": -2.4
  },
  {
    "phase": "TASK",
    "condition": "Cond2",
    "trial_num": 14,
    "trial_length": 8,
    "click_num": 1,
    "RT": 1414,
    "action": 1,
    "reward": -3.6
  },
  {
    "phase": "TASK",
    "condition": "Cond2",
    "trial_num": 14,
    "trial_length": 8,
    "click_num": 2,
    "RT": 1291,
    "action": 1,
    "reward": -2.9
  },
  {
    "phase": "TASK",
    "condition": "Cond2",
    "trial_num": 14,
    "trial_length": 8,
    "click_num": 3,
    "RT": 1494,
    "action": 1,
    "reward": -3.2
  },
  {
    "phase": "TASK",
    "condition": "Cond2",
    "trial_num": 14,
    "trial_length": 8,
    "click_num": 4,
    "RT": 1335,
    "action": 1,
    "reward": -3.1
  },
  {
    "phase": "TASK",
    "condition": "Cond2",
    "trial_num": 14,
    "trial_length": 8,
    "click_num": 5,
    "RT": 1319,
    "action": 1,
    "reward": -3.3
  },
  {
    "phase": "TASK",
    "condition": "Cond2",
    "trial_num": 14,
    "trial_length": 8,
    "click_num": 6,
    "RT": 1276,
    "action": 1,
    "reward": -3.5
  },
  {
    "phase": "TASK",
    "condition": "Cond2",
    "trial_num": 14,
    "trial_length": 8,
    "click_num": 7,
    "RT": 1278,
    "action": 1,
    "reward": -2.3
  },
  {
    "phase": "TASK",
    "condition": "Cond2",
    "trial_num": 14,
    "trial_length": 8,
    "click_num": 8,
    "RT": 2070,
    "action": 0,
    "reward": -2.3
  },
  {
    "phase": "TASK",
    "condition": "Cond2",
    "trial_num": 15,
    "trial_length": 9,
    "click_num": 1,
    "RT": 1992,
    "action": 1,
    "reward": -3.3
  },
  {
    "phase": "TASK",
    "condition": "Cond2",
    "trial_num": 15,
    "trial_length": 9,
    "click_num": 2,
    "RT": 4321,
    "action": 1,
    "reward": -2.6
  },
  {
    "phase": "TASK",
    "condition": "Cond2",
    "trial_num": 15,
    "trial_length": 9,
    "click_num": 3,
    "RT": 1951,
    "action": 0,
    "reward": -2.6
  },
  {
    "phase": "TASK",
    "condition": "Cond2",
    "trial_num": 15,
    "trial_length": 9,
    "click_num": 4,
    "RT": 1168,
    "action": 1,
    "reward": -2.6
  },
  {
    "phase": "TASK",
    "condition": "Cond2",
    "trial_num": 15,
    "trial_length": 9,
    "click_num": 5,
    "RT": 1871,
    "action": 1,
    "reward": -3.1
  },
  {
    "phase": "TASK",
    "condition": "Cond2",
    "trial_num": 15,
    "trial_length": 9,
    "click_num": 6,
    "RT": 1834,
    "action": 0,
    "reward": -2.6
  },
  {
    "phase": "TASK",
    "condition": "Cond2",
    "trial_num": 15,
    "trial_length": 9,
    "click_num": 7,
    "RT": 2967,
    "action": 1,
    "reward": -2.8
  },
  {
    "phase": "TASK",
    "condition": "Cond2",
    "trial_num": 15,
    "trial_length": 9,
    "click_num": 8,
    "RT": 1487,
    "action": 0,
    "reward": -2.6
  },
  {
    "phase": "TASK",
    "condition": "Cond2",
    "trial_num": 15,
    "trial_length": 9,
    "click_num": 9,
    "RT": 944,
    "action": 0,
    "reward": -2.6
  },
  {
    "phase": "TASK",
    "condition": "Cond2",
    "trial_num": 16,
    "trial_length": 5,
    "click_num": 1,
    "RT": 1899,
    "action": 1,
    "reward": -3.1
  },
  {
    "phase": "TASK",
    "condition": "Cond2",
    "trial_num": 16,
    "trial_length": 5,
    "click_num": 2,
    "RT": 2336,
    "action": 1,
    "reward": -3
  },
  {
    "phase": "TASK",
    "condition": "Cond2",
    "trial_num": 16,
    "trial_length": 5,
    "click_num": 3,
    "RT": 1272,
    "action": 1,
    "reward": -2.9
  },
  {
    "phase": "TASK",
    "condition": "Cond2",
    "trial_num": 16,
    "trial_length": 5,
    "click_num": 4,
    "RT": 1375,
    "action": 1,
    "reward": -2.9
  },
  {
    "phase": "TASK",
    "condition": "Cond2",
    "trial_num": 16,
    "trial_length": 5,
    "click_num": 5,
    "RT": 2408,
    "action": 1,
    "reward": -3.2
  },
  {
    "phase": "TASK",
    "condition": "Cond2",
    "trial_num": 17,
    "trial_length": 7,
    "click_num": 1,
    "RT": 1565,
    "action": 1,
    "reward": -3.5
  },
  {
    "phase": "TASK",
    "condition": "Cond2",
    "trial_num": 17,
    "trial_length": 7,
    "click_num": 2,
    "RT": 1848,
    "action": 1,
    "reward": -4
  },
  {
    "phase": "TASK",
    "condition": "Cond2",
    "trial_num": 17,
    "trial_length": 7,
    "click_num": 3,
    "RT": 1512,
    "action": 1,
    "reward": -2.7
  },
  {
    "phase": "TASK",
    "condition": "Cond2",
    "trial_num": 17,
    "trial_length": 7,
    "click_num": 4,
    "RT": 3112,
    "action": 1,
    "reward": -2.8
  },
  {
    "phase": "TASK",
    "condition": "Cond2",
    "trial_num": 17,
    "trial_length": 7,
    "click_num": 5,
    "RT": 1487,
    "action": 0,
    "reward": -2.7
  },
  {
    "phase": "TASK",
    "condition": "Cond2",
    "trial_num": 17,
    "trial_length": 7,
    "click_num": 6,
    "RT": 816,
    "action": 0,
    "reward": -2.7
  },
  {
    "phase": "TASK",
    "condition": "Cond2",
    "trial_num": 17,
    "trial_length": 7,
    "click_num": 7,
    "RT": 873,
    "action": 0,
    "reward": -2.7
  },
  {
    "phase": "TASK",
    "condition": "Cond2",
    "trial_num": 18,
    "trial_length": 9,
    "click_num": 1,
    "RT": 3800,
    "action": 1,
    "reward": -3.7
  },
  {
    "phase": "TASK",
    "condition": "Cond2",
    "trial_num": 18,
    "trial_length": 9,
    "click_num": 2,
    "RT": 2907,
    "action": 1,
    "reward": -3.7
  },
  {
    "phase": "TASK",
    "condition": "Cond2",
    "trial_num": 18,
    "trial_length": 9,
    "click_num": 3,
    "RT": 1742,
    "action": 1,
    "reward": -3
  },
  {
    "phase": "TASK",
    "condition": "Cond2",
    "trial_num": 18,
    "trial_length": 9,
    "click_num": 4,
    "RT": 1607,
    "action": 1,
    "reward": -2.7
  },
  {
    "phase": "TASK",
    "condition": "Cond2",
    "trial_num": 18,
    "trial_length": 9,
    "click_num": 5,
    "RT": 9712,
    "action": 1,
    "reward": -2.5
  },
  {
    "phase": "TASK",
    "condition": "Cond2",
    "trial_num": 18,
    "trial_length": 9,
    "click_num": 6,
    "RT": 3847,
    "action": 0,
    "reward": -2.5
  },
  {
    "phase": "TASK",
    "condition": "Cond2",
    "trial_num": 18,
    "trial_length": 9,
    "click_num": 7,
    "RT": 1288,
    "action": 0,
    "reward": -2.5
  },
  {
    "phase": "TASK",
    "condition": "Cond2",
    "trial_num": 18,
    "trial_length": 9,
    "click_num": 8,
    "RT": 1224,
    "action": 0,
    "reward": -2.5
  },
  {
    "phase": "TASK",
    "condition": "Cond2",
    "trial_num": 18,
    "trial_length": 9,
    "click_num": 9,
    "RT": 908,
    "action": 0,
    "reward": -2.5
  },
  {
    "phase": "TASK",
    "condition": "Cond2",
    "trial_num": 19,
    "trial_length": 5,
    "click_num": 1,
    "RT": 1773,
    "action": 1,
    "reward": -3.1
  },
  {
    "phase": "TASK",
    "condition": "Cond2",
    "trial_num": 19,
    "trial_length": 5,
    "click_num": 2,
    "RT": 1585,
    "action": 1,
    "reward": -3.2
  },
  {
    "phase": "TASK",
    "condition": "Cond2",
    "trial_num": 19,
    "trial_length": 5,
    "click_num": 3,
    "RT": 1511,
    "action": 1,
    "reward": -3.4
  },
  {
    "phase": "TASK",
    "condition": "Cond2",
    "trial_num": 19,
    "trial_length": 5,
    "click_num": 4,
    "RT": 1520,
    "action": 1,
    "reward": -2.5
  },
  {
    "phase": "TASK",
    "condition": "Cond2",
    "trial_num": 19,
    "trial_length": 5,
    "click_num": 5,
    "RT": 1760,
    "action": 0,
    "reward": -2.5
  },
  {
    "phase": "TASK",
    "condition": "Cond2",
    "trial_num": 20,
    "trial_length": 10,
    "click_num": 1,
    "RT": 2161,
    "action": 1,
    "reward": -2.9
  },
  {
    "phase": "TASK",
    "condition": "Cond2",
    "trial_num": 20,
    "trial_length": 10,
    "click_num": 2,
    "RT": 1391,
    "action": 1,
    "reward": -2.8
  },
  {
    "phase": "TASK",
    "condition": "Cond2",
    "trial_num": 20,
    "trial_length": 10,
    "click_num": 3,
    "RT": 1232,
    "action": 1,
    "reward": -2.4
  },
  {
    "phase": "TASK",
    "condition": "Cond2",
    "trial_num": 20,
    "trial_length": 10,
    "click_num": 4,
    "RT": 1552,
    "action": 0,
    "reward": -2.4
  },
  {
    "phase": "TASK",
    "condition": "Cond2",
    "trial_num": 20,
    "trial_length": 10,
    "click_num": 5,
    "RT": 1744,
    "action": 0,
    "reward": -2.4
  },
  {
    "phase": "TASK",
    "condition": "Cond2",
    "trial_num": 20,
    "trial_length": 10,
    "click_num": 6,
    "RT": 1152,
    "action": 1,
    "reward": -2.9
  },
  {
    "phase": "TASK",
    "condition": "Cond2",
    "trial_num": 20,
    "trial_length": 10,
    "click_num": 7,
    "RT": 1344,
    "action": 0,
    "reward": -2.4
  },
  {
    "phase": "TASK",
    "condition": "Cond2",
    "trial_num": 20,
    "trial_length": 10,
    "click_num": 8,
    "RT": 1040,
    "action": 0,
    "reward": -2.4
  },
  {
    "phase": "TASK",
    "condition": "Cond2",
    "trial_num": 20,
    "trial_length": 10,
    "click_num": 9,
    "RT": 808,
    "action": 0,
    "reward": -2.4
  },
  {
    "phase": "TASK",
    "condition": "Cond2",
    "trial_num": 20,
    "trial_length": 10,
    "click_num": 10,
    "RT": 2966,
    "action": 0,
    "reward": -2.4
  },
  {
    "phase": "TASK",
    "condition": "Cond2",
    "trial_num": 21,
    "trial_length": 6,
    "click_num": 1,
    "RT": 2047,
    "action": 1,
    "reward": -2.9
  },
  {
    "phase": "TASK",
    "condition": "Cond2",
    "trial_num": 21,
    "trial_length": 6,
    "click_num": 2,
    "RT": 1672,
    "action": 1,
    "reward": -3.6
  },
  {
    "phase": "TASK",
    "condition": "Cond2",
    "trial_num": 21,
    "trial_length": 6,
    "click_num": 3,
    "RT": 1872,
    "action": 1,
    "reward": -2.5
  },
  {
    "phase": "TASK",
    "condition": "Cond2",
    "trial_num": 21,
    "trial_length": 6,
    "click_num": 4,
    "RT": 1768,
    "action": 0,
    "reward": -2.5
  },
  {
    "phase": "TASK",
    "condition": "Cond2",
    "trial_num": 21,
    "trial_length": 6,
    "click_num": 5,
    "RT": 912,
    "action": 0,
    "reward": -2.5
  },
  {
    "phase": "TASK",
    "condition": "Cond2",
    "trial_num": 21,
    "trial_length": 6,
    "click_num": 6,
    "RT": 920,
    "action": 0,
    "reward": -2.5
  },
  {
    "phase": "TASK",
    "condition": "Cond2",
    "trial_num": 22,
    "trial_length": 8,
    "click_num": 1,
    "RT": 2336,
    "action": 1,
    "reward": -3.6
  },
  {
    "phase": "TASK",
    "condition": "Cond2",
    "trial_num": 22,
    "trial_length": 8,
    "click_num": 2,
    "RT": 2073,
    "action": 1,
    "reward": -3.1
  },
  {
    "phase": "TASK",
    "condition": "Cond2",
    "trial_num": 22,
    "trial_length": 8,
    "click_num": 3,
    "RT": 6808,
    "action": 1,
    "reward": -2.6
  },
  {
    "phase": "TASK",
    "condition": "Cond2",
    "trial_num": 22,
    "trial_length": 8,
    "click_num": 4,
    "RT": 2336,
    "action": 0,
    "reward": -2.6
  },
  {
    "phase": "TASK",
    "condition": "Cond2",
    "trial_num": 22,
    "trial_length": 8,
    "click_num": 5,
    "RT": 1711,
    "action": 1,
    "reward": -2
  },
  {
    "phase": "TASK",
    "condition": "Cond2",
    "trial_num": 22,
    "trial_length": 8,
    "click_num": 6,
    "RT": 1775,
    "action": 0,
    "reward": -2
  },
  {
    "phase": "TASK",
    "condition": "Cond2",
    "trial_num": 22,
    "trial_length": 8,
    "click_num": 7,
    "RT": 1240,
    "action": 0,
    "reward": -2
  },
  {
    "phase": "TASK",
    "condition": "Cond2",
    "trial_num": 22,
    "trial_length": 8,
    "click_num": 8,
    "RT": 1137,
    "action": 0,
    "reward": -2
  },
  {
    "phase": "TASK",
    "condition": "Cond2",
    "trial_num": 23,
    "trial_length": 10,
    "click_num": 1,
    "RT": 2102,
    "action": 1,
    "reward": -3
  },
  {
    "phase": "TASK",
    "condition": "Cond2",
    "trial_num": 23,
    "trial_length": 10,
    "click_num": 2,
    "RT": 3663,
    "action": 1,
    "reward": -2.5
  },
  {
    "phase": "TASK",
    "condition": "Cond2",
    "trial_num": 23,
    "trial_length": 10,
    "click_num": 3,
    "RT": 1687,
    "action": 0,
    "reward": -2.5
  },
  {
    "phase": "TASK",
    "condition": "Cond2",
    "trial_num": 23,
    "trial_length": 10,
    "click_num": 4,
    "RT": 1449,
    "action": 1,
    "reward": -3
  },
  {
    "phase": "TASK",
    "condition": "Cond2",
    "trial_num": 23,
    "trial_length": 10,
    "click_num": 5,
    "RT": 1713,
    "action": 1,
    "reward": -3.7
  },
  {
    "phase": "TASK",
    "condition": "Cond2",
    "trial_num": 23,
    "trial_length": 10,
    "click_num": 6,
    "RT": 1784,
    "action": 1,
    "reward": -3.1
  },
  {
    "phase": "TASK",
    "condition": "Cond2",
    "trial_num": 23,
    "trial_length": 10,
    "click_num": 7,
    "RT": 1287,
    "action": 1,
    "reward": -2.5
  },
  {
    "phase": "TASK",
    "condition": "Cond2",
    "trial_num": 23,
    "trial_length": 10,
    "click_num": 8,
    "RT": 1936,
    "action": 0,
    "reward": -2.5
  },
  {
    "phase": "TASK",
    "condition": "Cond2",
    "trial_num": 23,
    "trial_length": 10,
    "click_num": 9,
    "RT": 872,
    "action": 0,
    "reward": -2.5
  },
  {
    "phase": "TASK",
    "condition": "Cond2",
    "trial_num": 23,
    "trial_length": 10,
    "click_num": 10,
    "RT": 1520,
    "action": 0,
    "reward": -2.5
  },
  {
    "phase": "TASK",
    "condition": "Cond2",
    "trial_num": 24,
    "trial_length": 10,
    "click_num": 1,
    "RT": 1599,
    "action": 1,
    "reward": -2.7
  },
  {
    "phase": "TASK",
    "condition": "Cond2",
    "trial_num": 24,
    "trial_length": 10,
    "click_num": 2,
    "RT": 1705,
    "action": 1,
    "reward": -2.1
  },
  {
    "phase": "TASK",
    "condition": "Cond2",
    "trial_num": 24,
    "trial_length": 10,
    "click_num": 3,
    "RT": 1623,
    "action": 0,
    "reward": -2.1
  },
  {
    "phase": "TASK",
    "condition": "Cond2",
    "trial_num": 24,
    "trial_length": 10,
    "click_num": 4,
    "RT": 1776,
    "action": 0,
    "reward": -2.1
  },
  {
    "phase": "TASK",
    "condition": "Cond2",
    "trial_num": 24,
    "trial_length": 10,
    "click_num": 5,
    "RT": 919,
    "action": 0,
    "reward": -2.1
  },
  {
    "phase": "TASK",
    "condition": "Cond2",
    "trial_num": 24,
    "trial_length": 10,
    "click_num": 6,
    "RT": 1081,
    "action": 0,
    "reward": -2.1
  },
  {
    "phase": "TASK",
    "condition": "Cond2",
    "trial_num": 24,
    "trial_length": 10,
    "click_num": 7,
    "RT": 1000,
    "action": 0,
    "reward": -2.1
  },
  {
    "phase": "TASK",
    "condition": "Cond2",
    "trial_num": 24,
    "trial_length": 10,
    "click_num": 8,
    "RT": 1016,
    "action": 1,
    "reward": -2.9
  },
  {
    "phase": "TASK",
    "condition": "Cond2",
    "trial_num": 24,
    "trial_length": 10,
    "click_num": 9,
    "RT": 1174,
    "action": 0,
    "reward": -2.1
  },
  {
    "phase": "TASK",
    "condition": "Cond2",
    "trial_num": 24,
    "trial_length": 10,
    "click_num": 10,
    "RT": 922,
    "action": 0,
    "reward": -2.1
  },
  {
    "phase": "TASK",
    "condition": "Cond2",
    "trial_num": 25,
    "trial_length": 9,
    "click_num": 1,
    "RT": 1734,
    "action": 1,
    "reward": -3.2
  },
  {
    "phase": "TASK",
    "condition": "Cond2",
    "trial_num": 25,
    "trial_length": 9,
    "click_num": 2,
    "RT": 1504,
    "action": 1,
    "reward": -2.2
  },
  {
    "phase": "TASK",
    "condition": "Cond2",
    "trial_num": 25,
    "trial_length": 9,
    "click_num": 3,
    "RT": 1776,
    "action": 0,
    "reward": -2.2
  },
  {
    "phase": "TASK",
    "condition": "Cond2",
    "trial_num": 25,
    "trial_length": 9,
    "click_num": 4,
    "RT": 839,
    "action": 0,
    "reward": -2.2
  },
  {
    "phase": "TASK",
    "condition": "Cond2",
    "trial_num": 25,
    "trial_length": 9,
    "click_num": 5,
    "RT": 729,
    "action": 0,
    "reward": -2.2
  },
  {
    "phase": "TASK",
    "condition": "Cond2",
    "trial_num": 25,
    "trial_length": 9,
    "click_num": 6,
    "RT": 751,
    "action": 0,
    "reward": -2.2
  },
  {
    "phase": "TASK",
    "condition": "Cond2",
    "trial_num": 25,
    "trial_length": 9,
    "click_num": 7,
    "RT": 770,
    "action": 0,
    "reward": -2.2
  },
  {
    "phase": "TASK",
    "condition": "Cond2",
    "trial_num": 25,
    "trial_length": 9,
    "click_num": 8,
    "RT": 1392,
    "action": 0,
    "reward": -2.2
  },
  {
    "phase": "TASK",
    "condition": "Cond2",
    "trial_num": 25,
    "trial_length": 9,
    "click_num": 9,
    "RT": 935,
    "action": 0,
    "reward": -2.2
  },
  {
    "phase": "TASK",
    "condition": "Cond2",
    "trial_num": 26,
    "trial_length": 6,
    "click_num": 1,
    "RT": 1414,
    "action": 1,
    "reward": -3.9
  },
  {
    "phase": "TASK",
    "condition": "Cond2",
    "trial_num": 26,
    "trial_length": 6,
    "click_num": 2,
    "RT": 1747,
    "action": 1,
    "reward": -3.5
  },
  {
    "phase": "TASK",
    "condition": "Cond2",
    "trial_num": 26,
    "trial_length": 6,
    "click_num": 3,
    "RT": 1717,
    "action": 1,
    "reward": -2.9
  },
  {
    "phase": "TASK",
    "condition": "Cond2",
    "trial_num": 26,
    "trial_length": 6,
    "click_num": 4,
    "RT": 1624,
    "action": 1,
    "reward": -2.5
  },
  {
    "phase": "TASK",
    "condition": "Cond2",
    "trial_num": 26,
    "trial_length": 6,
    "click_num": 5,
    "RT": 2024,
    "action": 0,
    "reward": -2.5
  },
  {
    "phase": "TASK",
    "condition": "Cond2",
    "trial_num": 26,
    "trial_length": 6,
    "click_num": 6,
    "RT": 1016,
    "action": 0,
    "reward": -2.5
  },
  {
    "phase": "TASK",
    "condition": "Cond2",
    "trial_num": 27,
    "trial_length": 6,
    "click_num": 1,
    "RT": 1916,
    "action": 1,
    "reward": -2.2
  },
  {
    "phase": "TASK",
    "condition": "Cond2",
    "trial_num": 27,
    "trial_length": 6,
    "click_num": 2,
    "RT": 1949,
    "action": 0,
    "reward": -2.2
  },
  {
    "phase": "TASK",
    "condition": "Cond2",
    "trial_num": 27,
    "trial_length": 6,
    "click_num": 3,
    "RT": 944,
    "action": 0,
    "reward": -2.2
  },
  {
    "phase": "TASK",
    "condition": "Cond2",
    "trial_num": 27,
    "trial_length": 6,
    "click_num": 4,
    "RT": 800,
    "action": 0,
    "reward": -2.2
  },
  {
    "phase": "TASK",
    "condition": "Cond2",
    "trial_num": 27,
    "trial_length": 6,
    "click_num": 5,
    "RT": 771,
    "action": 0,
    "reward": -2.2
  },
  {
    "phase": "TASK",
    "condition": "Cond2",
    "trial_num": 27,
    "trial_length": 6,
    "click_num": 6,
    "RT": 901,
    "action": 0,
    "reward": -2.2
  },
  {
    "phase": "TASK",
    "condition": "Cond2",
    "trial_num": 28,
    "trial_length": 8,
    "click_num": 1,
    "RT": 1378,
    "action": 1,
    "reward": -2.7
  },
  {
    "phase": "TASK",
    "condition": "Cond2",
    "trial_num": 28,
    "trial_length": 8,
    "click_num": 2,
    "RT": 1515,
    "action": 1,
    "reward": -3
  },
  {
    "phase": "TASK",
    "condition": "Cond2",
    "trial_num": 28,
    "trial_length": 8,
    "click_num": 3,
    "RT": 1645,
    "action": 1,
    "reward": -1.7
  },
  {
    "phase": "TASK",
    "condition": "Cond2",
    "trial_num": 28,
    "trial_length": 8,
    "click_num": 4,
    "RT": 1448,
    "action": 0,
    "reward": -1.7
  },
  {
    "phase": "TASK",
    "condition": "Cond2",
    "trial_num": 28,
    "trial_length": 8,
    "click_num": 5,
    "RT": 927,
    "action": 0,
    "reward": -1.7
  },
  {
    "phase": "TASK",
    "condition": "Cond2",
    "trial_num": 28,
    "trial_length": 8,
    "click_num": 6,
    "RT": 880,
    "action": 0,
    "reward": -1.7
  },
  {
    "phase": "TASK",
    "condition": "Cond2",
    "trial_num": 28,
    "trial_length": 8,
    "click_num": 7,
    "RT": 737,
    "action": 0,
    "reward": -1.7
  },
  {
    "phase": "TASK",
    "condition": "Cond2",
    "trial_num": 28,
    "trial_length": 8,
    "click_num": 8,
    "RT": 791,
    "action": 0,
    "reward": -1.7
  },
  {
    "phase": "TASK",
    "condition": "Cond2",
    "trial_num": 29,
    "trial_length": 8,
    "click_num": 1,
    "RT": 1469,
    "action": 1,
    "reward": -2.5
  },
  {
    "phase": "TASK",
    "condition": "Cond2",
    "trial_num": 29,
    "trial_length": 8,
    "click_num": 2,
    "RT": 1441,
    "action": 1,
    "reward": -3.9
  },
  {
    "phase": "TASK",
    "condition": "Cond2",
    "trial_num": 29,
    "trial_length": 8,
    "click_num": 3,
    "RT": 1400,
    "action": 1,
    "reward": -1.6
  },
  {
    "phase": "TASK",
    "condition": "Cond2",
    "trial_num": 29,
    "trial_length": 8,
    "click_num": 4,
    "RT": 2871,
    "action": 0,
    "reward": -1.6
  },
  {
    "phase": "TASK",
    "condition": "Cond2",
    "trial_num": 29,
    "trial_length": 8,
    "click_num": 5,
    "RT": 904,
    "action": 0,
    "reward": -1.6
  },
  {
    "phase": "TASK",
    "condition": "Cond2",
    "trial_num": 29,
    "trial_length": 8,
    "click_num": 6,
    "RT": 1015,
    "action": 0,
    "reward": -1.6
  },
  {
    "phase": "TASK",
    "condition": "Cond2",
    "trial_num": 29,
    "trial_length": 8,
    "click_num": 7,
    "RT": 769,
    "action": 0,
    "reward": -1.6
  },
  {
    "phase": "TASK",
    "condition": "Cond2",
    "trial_num": 29,
    "trial_length": 8,
    "click_num": 8,
    "RT": 824,
    "action": 0,
    "reward": -1.6
  },
  {
    "phase": "TASK",
    "condition": "Cond2",
    "trial_num": 30,
    "trial_length": 9,
    "click_num": 1,
    "RT": 2015,
    "action": 1,
    "reward": -2.2
  },
  {
    "phase": "TASK",
    "condition": "Cond2",
    "trial_num": 30,
    "trial_length": 9,
    "click_num": 2,
    "RT": 1632,
    "action": 0,
    "reward": -2.2
  },
  {
    "phase": "TASK",
    "condition": "Cond2",
    "trial_num": 30,
    "trial_length": 9,
    "click_num": 3,
    "RT": 960,
    "action": 1,
    "reward": -2
  },
  {
    "phase": "TASK",
    "condition": "Cond2",
    "trial_num": 30,
    "trial_length": 9,
    "click_num": 4,
    "RT": 1568,
    "action": 0,
    "reward": -2
  },
  {
    "phase": "TASK",
    "condition": "Cond2",
    "trial_num": 30,
    "trial_length": 9,
    "click_num": 5,
    "RT": 952,
    "action": 0,
    "reward": -2
  },
  {
    "phase": "TASK",
    "condition": "Cond2",
    "trial_num": 30,
    "trial_length": 9,
    "click_num": 6,
    "RT": 752,
    "action": 0,
    "reward": -2
  },
  {
    "phase": "TASK",
    "condition": "Cond2",
    "trial_num": 30,
    "trial_length": 9,
    "click_num": 7,
    "RT": 840,
    "action": 0,
    "reward": -2
  },
  {
    "phase": "TASK",
    "condition": "Cond2",
    "trial_num": 30,
    "trial_length": 9,
    "click_num": 8,
    "RT": 798,
    "action": 0,
    "reward": -2
  },
  {
    "phase": "TASK",
    "condition": "Cond2",
    "trial_num": 30,
    "trial_length": 9,
    "click_num": 9,
    "RT": 1028,
    "action": 0,
    "reward": -2
  },
  {
    "phase": "TASK",
    "condition": "Cond2",
    "trial_num": 31,
    "trial_length": 10,
    "click_num": 1,
    "RT": 1446,
    "action": 1,
    "reward": -2.9
  },
  {
    "phase": "TASK",
    "condition": "Cond2",
    "trial_num": 31,
    "trial_length": 10,
    "click_num": 2,
    "RT": 1600,
    "action": 1,
    "reward": -3.3
  },
  {
    "phase": "TASK",
    "condition": "Cond2",
    "trial_num": 31,
    "trial_length": 10,
    "click_num": 3,
    "RT": 1418,
    "action": 1,
    "reward": -2.1
  },
  {
    "phase": "TASK",
    "condition": "Cond2",
    "trial_num": 31,
    "trial_length": 10,
    "click_num": 4,
    "RT": 3710,
    "action": 0,
    "reward": -2.1
  },
  {
    "phase": "TASK",
    "condition": "Cond2",
    "trial_num": 31,
    "trial_length": 10,
    "click_num": 5,
    "RT": 969,
    "action": 0,
    "reward": -2.1
  },
  {
    "phase": "TASK",
    "condition": "Cond2",
    "trial_num": 31,
    "trial_length": 10,
    "click_num": 6,
    "RT": 862,
    "action": 1,
    "reward": -4
  },
  {
    "phase": "TASK",
    "condition": "Cond2",
    "trial_num": 31,
    "trial_length": 10,
    "click_num": 7,
    "RT": 1545,
    "action": 0,
    "reward": -2.1
  },
  {
    "phase": "TASK",
    "condition": "Cond2",
    "trial_num": 31,
    "trial_length": 10,
    "click_num": 8,
    "RT": 1640,
    "action": 0,
    "reward": -2.1
  },
  {
    "phase": "TASK",
    "condition": "Cond2",
    "trial_num": 31,
    "trial_length": 10,
    "click_num": 9,
    "RT": 865,
    "action": 0,
    "reward": -2.1
  },
  {
    "phase": "TASK",
    "condition": "Cond2",
    "trial_num": 31,
    "trial_length": 10,
    "click_num": 10,
    "RT": 800,
    "action": 0,
    "reward": -2.1
  },
  {
    "phase": "TASK",
    "condition": "Cond2",
    "trial_num": 32,
    "trial_length": 8,
    "click_num": 1,
    "RT": 1357,
    "action": 1,
    "reward": -2.7
  },
  {
    "phase": "TASK",
    "condition": "Cond2",
    "trial_num": 32,
    "trial_length": 8,
    "click_num": 2,
    "RT": 1491,
    "action": 1,
    "reward": -3.8
  },
  {
    "phase": "TASK",
    "condition": "Cond2",
    "trial_num": 32,
    "trial_length": 8,
    "click_num": 3,
    "RT": 1549,
    "action": 1,
    "reward": -3.5
  },
  {
    "phase": "TASK",
    "condition": "Cond2",
    "trial_num": 32,
    "trial_length": 8,
    "click_num": 4,
    "RT": 1360,
    "action": 1,
    "reward": -3.2
  },
  {
    "phase": "TASK",
    "condition": "Cond2",
    "trial_num": 32,
    "trial_length": 8,
    "click_num": 5,
    "RT": 1383,
    "action": 1,
    "reward": -2.7
  },
  {
    "phase": "TASK",
    "condition": "Cond2",
    "trial_num": 32,
    "trial_length": 8,
    "click_num": 6,
    "RT": 1441,
    "action": 1,
    "reward": -3.6
  },
  {
    "phase": "TASK",
    "condition": "Cond2",
    "trial_num": 32,
    "trial_length": 8,
    "click_num": 7,
    "RT": 1654,
    "action": 0,
    "reward": -2.7
  },
  {
    "phase": "TASK",
    "condition": "Cond2",
    "trial_num": 32,
    "trial_length": 8,
    "click_num": 8,
    "RT": 770,
    "action": 0,
    "reward": -2.7
  },
  {
    "phase": "TASK",
    "condition": "Cond2",
    "trial_num": 33,
    "trial_length": 5,
    "click_num": 1,
    "RT": 1295,
    "action": 1,
    "reward": -3.1
  },
  {
    "phase": "TASK",
    "condition": "Cond2",
    "trial_num": 33,
    "trial_length": 5,
    "click_num": 2,
    "RT": 2271,
    "action": 1,
    "reward": -2.4
  },
  {
    "phase": "TASK",
    "condition": "Cond2",
    "trial_num": 33,
    "trial_length": 5,
    "click_num": 3,
    "RT": 1937,
    "action": 0,
    "reward": -2.4
  },
  {
    "phase": "TASK",
    "condition": "Cond2",
    "trial_num": 33,
    "trial_length": 5,
    "click_num": 4,
    "RT": 767,
    "action": 0,
    "reward": -2.4
  },
  {
    "phase": "TASK",
    "condition": "Cond2",
    "trial_num": 33,
    "trial_length": 5,
    "click_num": 5,
    "RT": 649,
    "action": 0,
    "reward": -2.4
  },
  {
    "phase": "TASK",
    "condition": "Cond2",
    "trial_num": 34,
    "trial_length": 10,
    "click_num": 1,
    "RT": 1533,
    "action": 1,
    "reward": -2.9
  },
  {
    "phase": "TASK",
    "condition": "Cond2",
    "trial_num": 34,
    "trial_length": 10,
    "click_num": 2,
    "RT": 1896,
    "action": 1,
    "reward": -2.4
  },
  {
    "phase": "TASK",
    "condition": "Cond2",
    "trial_num": 34,
    "trial_length": 10,
    "click_num": 3,
    "RT": 1715,
    "action": 1,
    "reward": -3.5
  },
  {
    "phase": "TASK",
    "condition": "Cond2",
    "trial_num": 34,
    "trial_length": 10,
    "click_num": 4,
    "RT": 1669,
    "action": 1,
    "reward": -3.7
  },
  {
    "phase": "TASK",
    "condition": "Cond2",
    "trial_num": 34,
    "trial_length": 10,
    "click_num": 5,
    "RT": 1313,
    "action": 1,
    "reward": -3.4
  },
  {
    "phase": "TASK",
    "condition": "Cond2",
    "trial_num": 34,
    "trial_length": 10,
    "click_num": 6,
    "RT": 1280,
    "action": 1,
    "reward": -3.3
  },
  {
    "phase": "TASK",
    "condition": "Cond2",
    "trial_num": 34,
    "trial_length": 10,
    "click_num": 7,
    "RT": 1222,
    "action": 1,
    "reward": -1.6
  },
  {
    "phase": "TASK",
    "condition": "Cond2",
    "trial_num": 34,
    "trial_length": 10,
    "click_num": 8,
    "RT": 1593,
    "action": 0,
    "reward": -1.6
  },
  {
    "phase": "TASK",
    "condition": "Cond2",
    "trial_num": 34,
    "trial_length": 10,
    "click_num": 9,
    "RT": 721,
    "action": 0,
    "reward": -1.6
  },
  {
    "phase": "TASK",
    "condition": "Cond2",
    "trial_num": 34,
    "trial_length": 10,
    "click_num": 10,
    "RT": 1579,
    "action": 0,
    "reward": -1.6
  },
  {
    "phase": "TASK",
    "condition": "Cond2",
    "trial_num": 35,
    "trial_length": 5,
    "click_num": 1,
    "RT": 1474,
    "action": 1,
    "reward": -2.7
  },
  {
    "phase": "TASK",
    "condition": "Cond2",
    "trial_num": 35,
    "trial_length": 5,
    "click_num": 2,
    "RT": 1419,
    "action": 1,
    "reward": -2.2
  },
  {
    "phase": "TASK",
    "condition": "Cond2",
    "trial_num": 35,
    "trial_length": 5,
    "click_num": 3,
    "RT": 1976,
    "action": 0,
    "reward": -2.2
  },
  {
    "phase": "TASK",
    "condition": "Cond2",
    "trial_num": 35,
    "trial_length": 5,
    "click_num": 4,
    "RT": 742,
    "action": 0,
    "reward": -2.2
  },
  {
    "phase": "TASK",
    "condition": "Cond2",
    "trial_num": 35,
    "trial_length": 5,
    "click_num": 5,
    "RT": 867,
    "action": 0,
    "reward": -2.2
  },
  {
    "phase": "TASK",
    "condition": "Cond2",
    "trial_num": 36,
    "trial_length": 9,
    "click_num": 1,
    "RT": 1430,
    "action": 1,
    "reward": -2.8
  },
  {
    "phase": "TASK",
    "condition": "Cond2",
    "trial_num": 36,
    "trial_length": 9,
    "click_num": 2,
    "RT": 1384,
    "action": 1,
    "reward": -1.9
  },
  {
    "phase": "TASK",
    "condition": "Cond2",
    "trial_num": 36,
    "trial_length": 9,
    "click_num": 3,
    "RT": 1751,
    "action": 0,
    "reward": -1.9
  },
  {
    "phase": "TASK",
    "condition": "Cond2",
    "trial_num": 36,
    "trial_length": 9,
    "click_num": 4,
    "RT": 1480,
    "action": 0,
    "reward": -1.9
  },
  {
    "phase": "TASK",
    "condition": "Cond2",
    "trial_num": 36,
    "trial_length": 9,
    "click_num": 5,
    "RT": 1089,
    "action": 0,
    "reward": -1.9
  },
  {
    "phase": "TASK",
    "condition": "Cond2",
    "trial_num": 36,
    "trial_length": 9,
    "click_num": 6,
    "RT": 847,
    "action": 0,
    "reward": -1.9
  },
  {
    "phase": "TASK",
    "condition": "Cond2",
    "trial_num": 36,
    "trial_length": 9,
    "click_num": 7,
    "RT": 849,
    "action": 0,
    "reward": -1.9
  },
  {
    "phase": "TASK",
    "condition": "Cond2",
    "trial_num": 36,
    "trial_length": 9,
    "click_num": 8,
    "RT": 1326,
    "action": 0,
    "reward": -1.9
  },
  {
    "phase": "TASK",
    "condition": "Cond2",
    "trial_num": 36,
    "trial_length": 9,
    "click_num": 9,
    "RT": 916,
    "action": 0,
    "reward": -1.9
  },
  {
    "phase": "TASK",
    "condition": "Cond2",
    "trial_num": 37,
    "trial_length": 10,
    "click_num": 1,
    "RT": 1628,
    "action": 1,
    "reward": -2.9
  },
  {
    "phase": "TASK",
    "condition": "Cond2",
    "trial_num": 37,
    "trial_length": 10,
    "click_num": 2,
    "RT": 1756,
    "action": 1,
    "reward": -2.3
  },
  {
    "phase": "TASK",
    "condition": "Cond2",
    "trial_num": 37,
    "trial_length": 10,
    "click_num": 3,
    "RT": 1557,
    "action": 1,
    "reward": -3
  },
  {
    "phase": "TASK",
    "condition": "Cond2",
    "trial_num": 37,
    "trial_length": 10,
    "click_num": 4,
    "RT": 1617,
    "action": 1,
    "reward": -3.6
  },
  {
    "phase": "TASK",
    "condition": "Cond2",
    "trial_num": 37,
    "trial_length": 10,
    "click_num": 5,
    "RT": 1240,
    "action": 1,
    "reward": -3.1
  },
  {
    "phase": "TASK",
    "condition": "Cond2",
    "trial_num": 37,
    "trial_length": 10,
    "click_num": 6,
    "RT": 1344,
    "action": 1,
    "reward": -3.3
  },
  {
    "phase": "TASK",
    "condition": "Cond2",
    "trial_num": 37,
    "trial_length": 10,
    "click_num": 7,
    "RT": 1450,
    "action": 0,
    "reward": -2.3
  },
  {
    "phase": "TASK",
    "condition": "Cond2",
    "trial_num": 37,
    "trial_length": 10,
    "click_num": 8,
    "RT": 910,
    "action": 0,
    "reward": -2.3
  },
  {
    "phase": "TASK",
    "condition": "Cond2",
    "trial_num": 37,
    "trial_length": 10,
    "click_num": 9,
    "RT": 959,
    "action": 0,
    "reward": -2.3
  },
  {
    "phase": "TASK",
    "condition": "Cond2",
    "trial_num": 37,
    "trial_length": 10,
    "click_num": 10,
    "RT": 952,
    "action": 0,
    "reward": -2.3
  },
  {
    "phase": "TASK",
    "condition": "Cond2",
    "trial_num": 38,
    "trial_length": 10,
    "click_num": 1,
    "RT": 1476,
    "action": 1,
    "reward": -3.6
  },
  {
    "phase": "TASK",
    "condition": "Cond2",
    "trial_num": 38,
    "trial_length": 10,
    "click_num": 2,
    "RT": 2367,
    "action": 1,
    "reward": -3.3
  },
  {
    "phase": "TASK",
    "condition": "Cond2",
    "trial_num": 38,
    "trial_length": 10,
    "click_num": 3,
    "RT": 1307,
    "action": 1,
    "reward": -3.6
  },
  {
    "phase": "TASK",
    "condition": "Cond2",
    "trial_num": 38,
    "trial_length": 10,
    "click_num": 4,
    "RT": 1326,
    "action": 1,
    "reward": -3.2
  },
  {
    "phase": "TASK",
    "condition": "Cond2",
    "trial_num": 38,
    "trial_length": 10,
    "click_num": 5,
    "RT": 1320,
    "action": 1,
    "reward": -2.7
  },
  {
    "phase": "TASK",
    "condition": "Cond2",
    "trial_num": 38,
    "trial_length": 10,
    "click_num": 6,
    "RT": 1704,
    "action": 1,
    "reward": -3.8
  },
  {
    "phase": "TASK",
    "condition": "Cond2",
    "trial_num": 38,
    "trial_length": 10,
    "click_num": 7,
    "RT": 2362,
    "action": 1,
    "reward": -2.5
  },
  {
    "phase": "TASK",
    "condition": "Cond2",
    "trial_num": 38,
    "trial_length": 10,
    "click_num": 8,
    "RT": 1421,
    "action": 0,
    "reward": -2.5
  },
  {
    "phase": "TASK",
    "condition": "Cond2",
    "trial_num": 38,
    "trial_length": 10,
    "click_num": 9,
    "RT": 802,
    "action": 0,
    "reward": -2.5
  },
  {
    "phase": "TASK",
    "condition": "Cond2",
    "trial_num": 38,
    "trial_length": 10,
    "click_num": 10,
    "RT": 783,
    "action": 0,
    "reward": -2.5
  },
  {
    "phase": "TASK",
    "condition": "Cond2",
    "trial_num": 39,
    "trial_length": 9,
    "click_num": 1,
    "RT": 1525,
    "action": 1,
    "reward": -3
  },
  {
    "phase": "TASK",
    "condition": "Cond2",
    "trial_num": 39,
    "trial_length": 9,
    "click_num": 2,
    "RT": 2024,
    "action": 1,
    "reward": -2.9
  },
  {
    "phase": "TASK",
    "condition": "Cond2",
    "trial_num": 39,
    "trial_length": 9,
    "click_num": 3,
    "RT": 1520,
    "action": 1,
    "reward": -2.8
  },
  {
    "phase": "TASK",
    "condition": "Cond2",
    "trial_num": 39,
    "trial_length": 9,
    "click_num": 4,
    "RT": 1377,
    "action": 1,
    "reward": -2.8
  },
  {
    "phase": "TASK",
    "condition": "Cond2",
    "trial_num": 39,
    "trial_length": 9,
    "click_num": 5,
    "RT": 1375,
    "action": 1,
    "reward": -2.5
  },
  {
    "phase": "TASK",
    "condition": "Cond2",
    "trial_num": 39,
    "trial_length": 9,
    "click_num": 6,
    "RT": 1608,
    "action": 1,
    "reward": -2.8
  },
  {
    "phase": "TASK",
    "condition": "Cond2",
    "trial_num": 39,
    "trial_length": 9,
    "click_num": 7,
    "RT": 1896,
    "action": 0,
    "reward": -2.5
  },
  {
    "phase": "TASK",
    "condition": "Cond2",
    "trial_num": 39,
    "trial_length": 9,
    "click_num": 8,
    "RT": 816,
    "action": 0,
    "reward": -2.5
  },
  {
    "phase": "TASK",
    "condition": "Cond2",
    "trial_num": 39,
    "trial_length": 9,
    "click_num": 9,
    "RT": 720,
    "action": 0,
    "reward": -2.5
  },
  {
    "phase": "TASK",
    "condition": "Cond2",
    "trial_num": 40,
    "trial_length": 10,
    "click_num": 1,
    "RT": 1328,
    "action": 1,
    "reward": -3
  },
  {
    "phase": "TASK",
    "condition": "Cond2",
    "trial_num": 40,
    "trial_length": 10,
    "click_num": 2,
    "RT": 1215,
    "action": 1,
    "reward": -3.2
  },
  {
    "phase": "TASK",
    "condition": "Cond2",
    "trial_num": 40,
    "trial_length": 10,
    "click_num": 3,
    "RT": 1233,
    "action": 1,
    "reward": -2.9
  },
  {
    "phase": "TASK",
    "condition": "Cond2",
    "trial_num": 40,
    "trial_length": 10,
    "click_num": 4,
    "RT": 1216,
    "action": 1,
    "reward": -3.1
  },
  {
    "phase": "TASK",
    "condition": "Cond2",
    "trial_num": 40,
    "trial_length": 10,
    "click_num": 5,
    "RT": 1121,
    "action": 1,
    "reward": -3.1
  },
  {
    "phase": "TASK",
    "condition": "Cond2",
    "trial_num": 40,
    "trial_length": 10,
    "click_num": 6,
    "RT": 1118,
    "action": 1,
    "reward": -3.1
  },
  {
    "phase": "TASK",
    "condition": "Cond2",
    "trial_num": 40,
    "trial_length": 10,
    "click_num": 7,
    "RT": 1185,
    "action": 1,
    "reward": -3.4
  },
  {
    "phase": "TASK",
    "condition": "Cond2",
    "trial_num": 40,
    "trial_length": 10,
    "click_num": 8,
    "RT": 1864,
    "action": 0,
    "reward": -2.9
  },
  {
    "phase": "TASK",
    "condition": "Cond2",
    "trial_num": 40,
    "trial_length": 10,
    "click_num": 9,
    "RT": 1496,
    "action": 1,
    "reward": -3.2
  },
  {
    "phase": "TASK",
    "condition": "Cond2",
    "trial_num": 40,
    "trial_length": 10,
    "click_num": 10,
    "RT": 1551,
    "action": 0,
    "reward": -2.9
  },
  {
    "phase": "TASK",
    "condition": "Cond2",
    "trial_num": 41,
    "trial_length": 5,
    "click_num": 1,
    "RT": 1530,
    "action": 1,
    "reward": -3
  },
  {
    "phase": "TASK",
    "condition": "Cond2",
    "trial_num": 41,
    "trial_length": 5,
    "click_num": 2,
    "RT": 1397,
    "action": 1,
    "reward": -2.4
  },
  {
    "phase": "TASK",
    "condition": "Cond2",
    "trial_num": 41,
    "trial_length": 5,
    "click_num": 3,
    "RT": 1416,
    "action": 1,
    "reward": -2.2
  },
  {
    "phase": "TASK",
    "condition": "Cond2",
    "trial_num": 41,
    "trial_length": 5,
    "click_num": 4,
    "RT": 1967,
    "action": 0,
    "reward": -2.2
  },
  {
    "phase": "TASK",
    "condition": "Cond2",
    "trial_num": 41,
    "trial_length": 5,
    "click_num": 5,
    "RT": 736,
    "action": 0,
    "reward": -2.2
  },
  {
    "phase": "TASK",
    "condition": "Cond2",
    "trial_num": 42,
    "trial_length": 9,
    "click_num": 1,
    "RT": 1493,
    "action": 1,
    "reward": -2.3
  },
  {
    "phase": "TASK",
    "condition": "Cond2",
    "trial_num": 42,
    "trial_length": 9,
    "click_num": 2,
    "RT": 1633,
    "action": 0,
    "reward": -2.3
  },
  {
    "phase": "TASK",
    "condition": "Cond2",
    "trial_num": 42,
    "trial_length": 9,
    "click_num": 3,
    "RT": 867,
    "action": 1,
    "reward": -3
  },
  {
    "phase": "TASK",
    "condition": "Cond2",
    "trial_num": 42,
    "trial_length": 9,
    "click_num": 4,
    "RT": 1253,
    "action": 1,
    "reward": -2.5
  },
  {
    "phase": "TASK",
    "condition": "Cond2",
    "trial_num": 42,
    "trial_length": 9,
    "click_num": 5,
    "RT": 1504,
    "action": 1,
    "reward": -2
  },
  {
    "phase": "TASK",
    "condition": "Cond2",
    "trial_num": 42,
    "trial_length": 9,
    "click_num": 6,
    "RT": 1656,
    "action": 0,
    "reward": -2
  },
  {
    "phase": "TASK",
    "condition": "Cond2",
    "trial_num": 42,
    "trial_length": 9,
    "click_num": 7,
    "RT": 840,
    "action": 0,
    "reward": -2
  },
  {
    "phase": "TASK",
    "condition": "Cond2",
    "trial_num": 42,
    "trial_length": 9,
    "click_num": 8,
    "RT": 696,
    "action": 0,
    "reward": -2
  },
  {
    "phase": "TASK",
    "condition": "Cond2",
    "trial_num": 42,
    "trial_length": 9,
    "click_num": 9,
    "RT": 712,
    "action": 0,
    "reward": -2
  },
  {
    "phase": "TASK",
    "condition": "Cond2",
    "trial_num": 43,
    "trial_length": 5,
    "click_num": 1,
    "RT": 1270,
    "action": 1,
    "reward": -3.3
  },
  {
    "phase": "TASK",
    "condition": "Cond2",
    "trial_num": 43,
    "trial_length": 5,
    "click_num": 2,
    "RT": 2363,
    "action": 1,
    "reward": -2.9
  },
  {
    "phase": "TASK",
    "condition": "Cond2",
    "trial_num": 43,
    "trial_length": 5,
    "click_num": 3,
    "RT": 1277,
    "action": 1,
    "reward": -3.3
  },
  {
    "phase": "TASK",
    "condition": "Cond2",
    "trial_num": 43,
    "trial_length": 5,
    "click_num": 4,
    "RT": 1544,
    "action": 1,
    "reward": -2.8
  },
  {
    "phase": "TASK",
    "condition": "Cond2",
    "trial_num": 43,
    "trial_length": 5,
    "click_num": 5,
    "RT": 1863,
    "action": 1,
    "reward": -2.9
  },
  {
    "phase": "TASK",
    "condition": "Cond2",
    "trial_num": 44,
    "trial_length": 8,
    "click_num": 1,
    "RT": 1428,
    "action": 1,
    "reward": -3.6
  },
  {
    "phase": "TASK",
    "condition": "Cond2",
    "trial_num": 44,
    "trial_length": 8,
    "click_num": 2,
    "RT": 1827,
    "action": 1,
    "reward": -2.4
  },
  {
    "phase": "TASK",
    "condition": "Cond2",
    "trial_num": 44,
    "trial_length": 8,
    "click_num": 3,
    "RT": 2052,
    "action": 1,
    "reward": -1.9
  },
  {
    "phase": "TASK",
    "condition": "Cond2",
    "trial_num": 44,
    "trial_length": 8,
    "click_num": 4,
    "RT": 1496,
    "action": 0,
    "reward": -1.9
  },
  {
    "phase": "TASK",
    "condition": "Cond2",
    "trial_num": 44,
    "trial_length": 8,
    "click_num": 5,
    "RT": 1256,
    "action": 0,
    "reward": -1.9
  },
  {
    "phase": "TASK",
    "condition": "Cond2",
    "trial_num": 44,
    "trial_length": 8,
    "click_num": 6,
    "RT": 745,
    "action": 0,
    "reward": -1.9
  },
  {
    "phase": "TASK",
    "condition": "Cond2",
    "trial_num": 44,
    "trial_length": 8,
    "click_num": 7,
    "RT": 904,
    "action": 0,
    "reward": -1.9
  },
  {
    "phase": "TASK",
    "condition": "Cond2",
    "trial_num": 44,
    "trial_length": 8,
    "click_num": 8,
    "RT": 1112,
    "action": 0,
    "reward": -1.9
  },
  {
    "phase": "TASK",
    "condition": "Cond2",
    "trial_num": 45,
    "trial_length": 5,
    "click_num": 1,
    "RT": 1609,
    "action": 1,
    "reward": -2.8
  },
  {
    "phase": "TASK",
    "condition": "Cond2",
    "trial_num": 45,
    "trial_length": 5,
    "click_num": 2,
    "RT": 1260,
    "action": 1,
    "reward": -1.9
  },
  {
    "phase": "TASK",
    "condition": "Cond2",
    "trial_num": 45,
    "trial_length": 5,
    "click_num": 3,
    "RT": 1856,
    "action": 0,
    "reward": -1.9
  },
  {
    "phase": "TASK",
    "condition": "Cond2",
    "trial_num": 45,
    "trial_length": 5,
    "click_num": 4,
    "RT": 1856,
    "action": 0,
    "reward": -1.9
  },
  {
    "phase": "TASK",
    "condition": "Cond2",
    "trial_num": 45,
    "trial_length": 5,
    "click_num": 5,
    "RT": 760,
    "action": 0,
    "reward": -1.9
  },
  {
    "phase": "TASK",
    "condition": "Cond2",
    "trial_num": 46,
    "trial_length": 7,
    "click_num": 1,
    "RT": 1162,
    "action": 1,
    "reward": -2.6
  },
  {
    "phase": "TASK",
    "condition": "Cond2",
    "trial_num": 46,
    "trial_length": 7,
    "click_num": 2,
    "RT": 1359,
    "action": 1,
    "reward": -2.7
  },
  {
    "phase": "TASK",
    "condition": "Cond2",
    "trial_num": 46,
    "trial_length": 7,
    "click_num": 3,
    "RT": 1200,
    "action": 1,
    "reward": -3
  },
  {
    "phase": "TASK",
    "condition": "Cond2",
    "trial_num": 46,
    "trial_length": 7,
    "click_num": 4,
    "RT": 1146,
    "action": 1,
    "reward": -3.5
  },
  {
    "phase": "TASK",
    "condition": "Cond2",
    "trial_num": 46,
    "trial_length": 7,
    "click_num": 5,
    "RT": 1150,
    "action": 1,
    "reward": -2.6
  },
  {
    "phase": "TASK",
    "condition": "Cond2",
    "trial_num": 46,
    "trial_length": 7,
    "click_num": 6,
    "RT": 1841,
    "action": 1,
    "reward": -4.3
  },
  {
    "phase": "TASK",
    "condition": "Cond2",
    "trial_num": 46,
    "trial_length": 7,
    "click_num": 7,
    "RT": 1856,
    "action": 0,
    "reward": -2.6
  },
  {
    "phase": "TASK",
    "condition": "Cond2",
    "trial_num": 47,
    "trial_length": 5,
    "click_num": 1,
    "RT": 1182,
    "action": 1,
    "reward": -2.5
  },
  {
    "phase": "TASK",
    "condition": "Cond2",
    "trial_num": 47,
    "trial_length": 5,
    "click_num": 2,
    "RT": 1592,
    "action": 1,
    "reward": -2.6
  },
  {
    "phase": "TASK",
    "condition": "Cond2",
    "trial_num": 47,
    "trial_length": 5,
    "click_num": 3,
    "RT": 1560,
    "action": 0,
    "reward": -2.5
  },
  {
    "phase": "TASK",
    "condition": "Cond2",
    "trial_num": 47,
    "trial_length": 5,
    "click_num": 4,
    "RT": 867,
    "action": 0,
    "reward": -2.5
  },
  {
    "phase": "TASK",
    "condition": "Cond2",
    "trial_num": 47,
    "trial_length": 5,
    "click_num": 5,
    "RT": 701,
    "action": 0,
    "reward": -2.5
  },
  {
    "phase": "TASK",
    "condition": "Cond2",
    "trial_num": 48,
    "trial_length": 10,
    "click_num": 1,
    "RT": 1325,
    "action": 1,
    "reward": -3.5
  },
  {
    "phase": "TASK",
    "condition": "Cond2",
    "trial_num": 48,
    "trial_length": 10,
    "click_num": 2,
    "RT": 1296,
    "action": 1,
    "reward": -3.3
  },
  {
    "phase": "TASK",
    "condition": "Cond2",
    "trial_num": 48,
    "trial_length": 10,
    "click_num": 3,
    "RT": 1339,
    "action": 1,
    "reward": -3.6
  },
  {
    "phase": "TASK",
    "condition": "Cond2",
    "trial_num": 48,
    "trial_length": 10,
    "click_num": 4,
    "RT": 1309,
    "action": 1,
    "reward": -2.8
  },
  {
    "phase": "TASK",
    "condition": "Cond2",
    "trial_num": 48,
    "trial_length": 10,
    "click_num": 5,
    "RT": 1336,
    "action": 1,
    "reward": -3.2
  },
  {
    "phase": "TASK",
    "condition": "Cond2",
    "trial_num": 48,
    "trial_length": 10,
    "click_num": 6,
    "RT": 2200,
    "action": 1,
    "reward": -3.2
  },
  {
    "phase": "TASK",
    "condition": "Cond2",
    "trial_num": 48,
    "trial_length": 10,
    "click_num": 7,
    "RT": 1200,
    "action": 1,
    "reward": -3.6
  },
  {
    "phase": "TASK",
    "condition": "Cond2",
    "trial_num": 48,
    "trial_length": 10,
    "click_num": 8,
    "RT": 1178,
    "action": 1,
    "reward": -2.8
  },
  {
    "phase": "TASK",
    "condition": "Cond2",
    "trial_num": 48,
    "trial_length": 10,
    "click_num": 9,
    "RT": 1655,
    "action": 0,
    "reward": -2.8
  },
  {
    "phase": "TASK",
    "condition": "Cond2",
    "trial_num": 48,
    "trial_length": 10,
    "click_num": 10,
    "RT": 831,
    "action": 0,
    "reward": -2.8
  },
  {
    "phase": "TASK",
    "condition": "Cond2",
    "trial_num": 49,
    "trial_length": 8,
    "click_num": 1,
    "RT": 1245,
    "action": 1,
    "reward": -2.7
  },
  {
    "phase": "TASK",
    "condition": "Cond2",
    "trial_num": 49,
    "trial_length": 8,
    "click_num": 2,
    "RT": 2178,
    "action": 1,
    "reward": -3.7
  },
  {
    "phase": "TASK",
    "condition": "Cond2",
    "trial_num": 49,
    "trial_length": 8,
    "click_num": 3,
    "RT": 1806,
    "action": 1,
    "reward": -4.1
  },
  {
    "phase": "TASK",
    "condition": "Cond2",
    "trial_num": 49,
    "trial_length": 8,
    "click_num": 4,
    "RT": 1113,
    "action": 1,
    "reward": -3.1
  },
  {
    "phase": "TASK",
    "condition": "Cond2",
    "trial_num": 49,
    "trial_length": 8,
    "click_num": 5,
    "RT": 1345,
    "action": 1,
    "reward": -2.7
  },
  {
    "phase": "TASK",
    "condition": "Cond2",
    "trial_num": 49,
    "trial_length": 8,
    "click_num": 6,
    "RT": 1975,
    "action": 0,
    "reward": -2.7
  },
  {
    "phase": "TASK",
    "condition": "Cond2",
    "trial_num": 49,
    "trial_length": 8,
    "click_num": 7,
    "RT": 792,
    "action": 0,
    "reward": -2.7
  },
  {
    "phase": "TASK",
    "condition": "Cond2",
    "trial_num": 49,
    "trial_length": 8,
    "click_num": 8,
    "RT": 987,
    "action": 0,
    "reward": -2.7
  },
  {
    "phase": "TASK",
    "condition": "Cond2",
    "trial_num": 50,
    "trial_length": 5,
    "click_num": 1,
    "RT": 1685,
    "action": 1,
    "reward": -2.5
  },
  {
    "phase": "TASK",
    "condition": "Cond2",
    "trial_num": 50,
    "trial_length": 5,
    "click_num": 2,
    "RT": 1594,
    "action": 0,
    "reward": -2.5
  },
  {
    "phase": "TASK",
    "condition": "Cond2",
    "trial_num": 50,
    "trial_length": 5,
    "click_num": 3,
    "RT": 934,
    "action": 0,
    "reward": -2.5
  },
  {
    "phase": "TASK",
    "condition": "Cond2",
    "trial_num": 50,
    "trial_length": 5,
    "click_num": 4,
    "RT": 744,
    "action": 0,
    "reward": -2.5
  },
  {
    "phase": "TASK",
    "condition": "Cond2",
    "trial_num": 50,
    "trial_length": 5,
    "click_num": 5,
    "RT": 751,
    "action": 0,
    "reward": -2.5
  },
  {
    "phase": "TASK",
    "condition": "Cond2",
    "trial_num": 51,
    "trial_length": 6,
    "click_num": 1,
    "RT": 1004,
    "action": 1,
    "reward": -2
  },
  {
    "phase": "TASK",
    "condition": "Cond2",
    "trial_num": 51,
    "trial_length": 6,
    "click_num": 2,
    "RT": 1607,
    "action": 0,
    "reward": -2
  },
  {
    "phase": "TASK",
    "condition": "Cond2",
    "trial_num": 51,
    "trial_length": 6,
    "click_num": 3,
    "RT": 784,
    "action": 0,
    "reward": -2
  },
  {
    "phase": "TASK",
    "condition": "Cond2",
    "trial_num": 51,
    "trial_length": 6,
    "click_num": 4,
    "RT": 793,
    "action": 0,
    "reward": -2
  },
  {
    "phase": "TASK",
    "condition": "Cond2",
    "trial_num": 51,
    "trial_length": 6,
    "click_num": 5,
    "RT": 984,
    "action": 0,
    "reward": -2
  },
  {
    "phase": "TASK",
    "condition": "Cond2",
    "trial_num": 51,
    "trial_length": 6,
    "click_num": 6,
    "RT": 911,
    "action": 0,
    "reward": -2
  },
  {
    "phase": "TASK",
    "condition": "Cond2",
    "trial_num": 52,
    "trial_length": 8,
    "click_num": 1,
    "RT": 1215,
    "action": 1,
    "reward": -3.6
  },
  {
    "phase": "TASK",
    "condition": "Cond2",
    "trial_num": 52,
    "trial_length": 8,
    "click_num": 2,
    "RT": 1776,
    "action": 1,
    "reward": -1.9
  },
  {
    "phase": "TASK",
    "condition": "Cond2",
    "trial_num": 52,
    "trial_length": 8,
    "click_num": 3,
    "RT": 1600,
    "action": 0,
    "reward": -1.9
  },
  {
    "phase": "TASK",
    "condition": "Cond2",
    "trial_num": 52,
    "trial_length": 8,
    "click_num": 4,
    "RT": 783,
    "action": 0,
    "reward": -1.9
  },
  {
    "phase": "TASK",
    "condition": "Cond2",
    "trial_num": 52,
    "trial_length": 8,
    "click_num": 5,
    "RT": 720,
    "action": 0,
    "reward": -1.9
  },
  {
    "phase": "TASK",
    "condition": "Cond2",
    "trial_num": 52,
    "trial_length": 8,
    "click_num": 6,
    "RT": 747,
    "action": 0,
    "reward": -1.9
  },
  {
    "phase": "TASK",
    "condition": "Cond2",
    "trial_num": 52,
    "trial_length": 8,
    "click_num": 7,
    "RT": 845,
    "action": 0,
    "reward": -1.9
  },
  {
    "phase": "TASK",
    "condition": "Cond2",
    "trial_num": 52,
    "trial_length": 8,
    "click_num": 8,
    "RT": 840,
    "action": 0,
    "reward": -1.9
  },
  {
    "phase": "TASK",
    "condition": "Cond2",
    "trial_num": 53,
    "trial_length": 5,
    "click_num": 1,
    "RT": 1059,
    "action": 1,
    "reward": -2
  },
  {
    "phase": "TASK",
    "condition": "Cond2",
    "trial_num": 53,
    "trial_length": 5,
    "click_num": 2,
    "RT": 1643,
    "action": 0,
    "reward": -2
  },
  {
    "phase": "TASK",
    "condition": "Cond2",
    "trial_num": 53,
    "trial_length": 5,
    "click_num": 3,
    "RT": 912,
    "action": 0,
    "reward": -2
  },
  {
    "phase": "TASK",
    "condition": "Cond2",
    "trial_num": 53,
    "trial_length": 5,
    "click_num": 4,
    "RT": 784,
    "action": 0,
    "reward": -2
  },
  {
    "phase": "TASK",
    "condition": "Cond2",
    "trial_num": 53,
    "trial_length": 5,
    "click_num": 5,
    "RT": 847,
    "action": 1,
    "reward": -2.9
  },
  {
    "phase": "TASK",
    "condition": "Cond2",
    "trial_num": 54,
    "trial_length": 5,
    "click_num": 1,
    "RT": 1389,
    "action": 1,
    "reward": -1.9
  },
  {
    "phase": "TASK",
    "condition": "Cond2",
    "trial_num": 54,
    "trial_length": 5,
    "click_num": 2,
    "RT": 1375,
    "action": 0,
    "reward": -1.9
  },
  {
    "phase": "TASK",
    "condition": "Cond2",
    "trial_num": 54,
    "trial_length": 5,
    "click_num": 3,
    "RT": 833,
    "action": 0,
    "reward": -1.9
  },
  {
    "phase": "TASK",
    "condition": "Cond2",
    "trial_num": 54,
    "trial_length": 5,
    "click_num": 4,
    "RT": 1674,
    "action": 0,
    "reward": -1.9
  },
  {
    "phase": "TASK",
    "condition": "Cond2",
    "trial_num": 54,
    "trial_length": 5,
    "click_num": 5,
    "RT": 837,
    "action": 0,
    "reward": -1.9
  },
  {
    "phase": "TASK",
    "condition": "Cond2",
    "trial_num": 55,
    "trial_length": 7,
    "click_num": 1,
    "RT": 1670,
    "action": 1,
    "reward": -3
  },
  {
    "phase": "TASK",
    "condition": "Cond2",
    "trial_num": 55,
    "trial_length": 7,
    "click_num": 2,
    "RT": 1222,
    "action": 1,
    "reward": -3.1
  },
  {
    "phase": "TASK",
    "condition": "Cond2",
    "trial_num": 55,
    "trial_length": 7,
    "click_num": 3,
    "RT": 1283,
    "action": 1,
    "reward": -3
  },
  {
    "phase": "TASK",
    "condition": "Cond2",
    "trial_num": 55,
    "trial_length": 7,
    "click_num": 4,
    "RT": 1183,
    "action": 1,
    "reward": -4
  },
  {
    "phase": "TASK",
    "condition": "Cond2",
    "trial_num": 55,
    "trial_length": 7,
    "click_num": 5,
    "RT": 1226,
    "action": 1,
    "reward": -3.6
  },
  {
    "phase": "TASK",
    "condition": "Cond2",
    "trial_num": 55,
    "trial_length": 7,
    "click_num": 6,
    "RT": 1439,
    "action": 1,
    "reward": -3.3
  },
  {
    "phase": "TASK",
    "condition": "Cond2",
    "trial_num": 55,
    "trial_length": 7,
    "click_num": 7,
    "RT": 1239,
    "action": 1,
    "reward": -4
  },
  {
    "phase": "TASK",
    "condition": "Cond2",
    "trial_num": 56,
    "trial_length": 10,
    "click_num": 1,
    "RT": 2326,
    "action": 1,
    "reward": -1.8
  },
  {
    "phase": "TASK",
    "condition": "Cond2",
    "trial_num": 56,
    "trial_length": 10,
    "click_num": 2,
    "RT": 1856,
    "action": 0,
    "reward": -1.8
  },
  {
    "phase": "TASK",
    "condition": "Cond2",
    "trial_num": 56,
    "trial_length": 10,
    "click_num": 3,
    "RT": 919,
    "action": 0,
    "reward": -1.8
  },
  {
    "phase": "TASK",
    "condition": "Cond2",
    "trial_num": 56,
    "trial_length": 10,
    "click_num": 4,
    "RT": 742,
    "action": 0,
    "reward": -1.8
  },
  {
    "phase": "TASK",
    "condition": "Cond2",
    "trial_num": 56,
    "trial_length": 10,
    "click_num": 5,
    "RT": 795,
    "action": 0,
    "reward": -1.8
  },
  {
    "phase": "TASK",
    "condition": "Cond2",
    "trial_num": 56,
    "trial_length": 10,
    "click_num": 6,
    "RT": 768,
    "action": 0,
    "reward": -1.8
  },
  {
    "phase": "TASK",
    "condition": "Cond2",
    "trial_num": 56,
    "trial_length": 10,
    "click_num": 7,
    "RT": 840,
    "action": 0,
    "reward": -1.8
  },
  {
    "phase": "TASK",
    "condition": "Cond2",
    "trial_num": 56,
    "trial_length": 10,
    "click_num": 8,
    "RT": 720,
    "action": 0,
    "reward": -1.8
  },
  {
    "phase": "TASK",
    "condition": "Cond2",
    "trial_num": 56,
    "trial_length": 10,
    "click_num": 9,
    "RT": 1295,
    "action": 0,
    "reward": -1.8
  },
  {
    "phase": "TASK",
    "condition": "Cond2",
    "trial_num": 56,
    "trial_length": 10,
    "click_num": 10,
    "RT": 754,
    "action": 0,
    "reward": -1.8
  },
  {
    "phase": "TASK",
    "condition": "Cond2",
    "trial_num": 57,
    "trial_length": 9,
    "click_num": 1,
    "RT": 1126,
    "action": 1,
    "reward": -3.4
  },
  {
    "phase": "TASK",
    "condition": "Cond2",
    "trial_num": 57,
    "trial_length": 9,
    "click_num": 2,
    "RT": 1208,
    "action": 1,
    "reward": -1.3
  },
  {
    "phase": "TASK",
    "condition": "Cond2",
    "trial_num": 57,
    "trial_length": 9,
    "click_num": 3,
    "RT": 1568,
    "action": 0,
    "reward": -1.3
  },
  {
    "phase": "TASK",
    "condition": "Cond2",
    "trial_num": 57,
    "trial_length": 9,
    "click_num": 4,
    "RT": 815,
    "action": 0,
    "reward": -1.3
  },
  {
    "phase": "TASK",
    "condition": "Cond2",
    "trial_num": 57,
    "trial_length": 9,
    "click_num": 5,
    "RT": 929,
    "action": 0,
    "reward": -1.3
  },
  {
    "phase": "TASK",
    "condition": "Cond2",
    "trial_num": 57,
    "trial_length": 9,
    "click_num": 6,
    "RT": 771,
    "action": 0,
    "reward": -1.3
  },
  {
    "phase": "TASK",
    "condition": "Cond2",
    "trial_num": 57,
    "trial_length": 9,
    "click_num": 7,
    "RT": 724,
    "action": 0,
    "reward": -1.3
  },
  {
    "phase": "TASK",
    "condition": "Cond2",
    "trial_num": 57,
    "trial_length": 9,
    "click_num": 8,
    "RT": 656,
    "action": 0,
    "reward": -1.3
  },
  {
    "phase": "TASK",
    "condition": "Cond2",
    "trial_num": 57,
    "trial_length": 9,
    "click_num": 9,
    "RT": 706,
    "action": 0,
    "reward": -1.3
  },
  {
    "phase": "TASK",
    "condition": "Cond2",
    "trial_num": 58,
    "trial_length": 8,
    "click_num": 1,
    "RT": 1318,
    "action": 1,
    "reward": -3.4
  },
  {
    "phase": "TASK",
    "condition": "Cond2",
    "trial_num": 58,
    "trial_length": 8,
    "click_num": 2,
    "RT": 1319,
    "action": 1,
    "reward": -3.9
  },
  {
    "phase": "TASK",
    "condition": "Cond2",
    "trial_num": 58,
    "trial_length": 8,
    "click_num": 3,
    "RT": 1219,
    "action": 1,
    "reward": -4.3
  },
  {
    "phase": "TASK",
    "condition": "Cond2",
    "trial_num": 58,
    "trial_length": 8,
    "click_num": 4,
    "RT": 1237,
    "action": 1,
    "reward": -2.3
  },
  {
    "phase": "TASK",
    "condition": "Cond2",
    "trial_num": 58,
    "trial_length": 8,
    "click_num": 5,
    "RT": 1480,
    "action": 0,
    "reward": -2.3
  },
  {
    "phase": "TASK",
    "condition": "Cond2",
    "trial_num": 58,
    "trial_length": 8,
    "click_num": 6,
    "RT": 785,
    "action": 0,
    "reward": -2.3
  },
  {
    "phase": "TASK",
    "condition": "Cond2",
    "trial_num": 58,
    "trial_length": 8,
    "click_num": 7,
    "RT": 631,
    "action": 0,
    "reward": -2.3
  },
  {
    "phase": "TASK",
    "condition": "Cond2",
    "trial_num": 58,
    "trial_length": 8,
    "click_num": 8,
    "RT": 762,
    "action": 0,
    "reward": -2.3
  },
  {
    "phase": "TASK",
    "condition": "Cond2",
    "trial_num": 59,
    "trial_length": 6,
    "click_num": 1,
    "RT": 1278,
    "action": 1,
    "reward": -2.2
  },
  {
    "phase": "TASK",
    "condition": "Cond2",
    "trial_num": 59,
    "trial_length": 6,
    "click_num": 2,
    "RT": 2083,
    "action": 1,
    "reward": -2.7
  },
  {
    "phase": "TASK",
    "condition": "Cond2",
    "trial_num": 59,
    "trial_length": 6,
    "click_num": 3,
    "RT": 1877,
    "action": 0,
    "reward": -2.2
  },
  {
    "phase": "TASK",
    "condition": "Cond2",
    "trial_num": 59,
    "trial_length": 6,
    "click_num": 4,
    "RT": 928,
    "action": 0,
    "reward": -2.2
  },
  {
    "phase": "TASK",
    "condition": "Cond2",
    "trial_num": 59,
    "trial_length": 6,
    "click_num": 5,
    "RT": 1767,
    "action": 0,
    "reward": -2.2
  },
  {
    "phase": "TASK",
    "condition": "Cond2",
    "trial_num": 59,
    "trial_length": 6,
    "click_num": 6,
    "RT": 728,
    "action": 0,
    "reward": -2.2
  },
  {
    "phase": "TASK",
    "condition": "Cond2",
    "trial_num": 60,
    "trial_length": 5,
    "click_num": 1,
    "RT": 2631,
    "action": 1,
    "reward": -4.3
  },
  {
    "phase": "TASK",
    "condition": "Cond2",
    "trial_num": 60,
    "trial_length": 5,
    "click_num": 2,
    "RT": 1560,
    "action": 1,
    "reward": -4.8
  },
  {
    "phase": "TASK",
    "condition": "Cond2",
    "trial_num": 60,
    "trial_length": 5,
    "click_num": 3,
    "RT": 2992,
    "action": 1,
    "reward": -2.9
  },
  {
    "phase": "TASK",
    "condition": "Cond2",
    "trial_num": 60,
    "trial_length": 5,
    "click_num": 4,
    "RT": 1607,
    "action": 1,
    "reward": -3.9
  },
  {
    "phase": "TASK",
    "condition": "Cond2",
    "trial_num": 60,
    "trial_length": 5,
    "click_num": 5,
    "RT": 2016,
    "action": 0,
    "reward": -2.9
  },
  {
    "phase": "TASK",
    "condition": "Cond2",
    "trial_num": 61,
    "trial_length": 5,
    "click_num": 1,
    "RT": 1361,
    "action": 1,
    "reward": -3.3
  },
  {
    "phase": "TASK",
    "condition": "Cond2",
    "trial_num": 61,
    "trial_length": 5,
    "click_num": 2,
    "RT": 1749,
    "action": 1,
    "reward": -3.5
  },
  {
    "phase": "TASK",
    "condition": "Cond2",
    "trial_num": 61,
    "trial_length": 5,
    "click_num": 3,
    "RT": 1369,
    "action": 1,
    "reward": -3.2
  },
  {
    "phase": "TASK",
    "condition": "Cond2",
    "trial_num": 61,
    "trial_length": 5,
    "click_num": 4,
    "RT": 1367,
    "action": 1,
    "reward": -3
  },
  {
    "phase": "TASK",
    "condition": "Cond2",
    "trial_num": 61,
    "trial_length": 5,
    "click_num": 5,
    "RT": 1185,
    "action": 1,
    "reward": -2.9
  },
  {
    "phase": "TASK",
    "condition": "Cond2",
    "trial_num": 62,
    "trial_length": 8,
    "click_num": 1,
    "RT": 1519,
    "action": 1,
    "reward": -2.8
  },
  {
    "phase": "TASK",
    "condition": "Cond2",
    "trial_num": 62,
    "trial_length": 8,
    "click_num": 2,
    "RT": 2856,
    "action": 1,
    "reward": -3.4
  },
  {
    "phase": "TASK",
    "condition": "Cond2",
    "trial_num": 62,
    "trial_length": 8,
    "click_num": 3,
    "RT": 1302,
    "action": 1,
    "reward": -2.3
  },
  {
    "phase": "TASK",
    "condition": "Cond2",
    "trial_num": 62,
    "trial_length": 8,
    "click_num": 4,
    "RT": 1581,
    "action": 0,
    "reward": -2.3
  },
  {
    "phase": "TASK",
    "condition": "Cond2",
    "trial_num": 62,
    "trial_length": 8,
    "click_num": 5,
    "RT": 886,
    "action": 0,
    "reward": -2.3
  },
  {
    "phase": "TASK",
    "condition": "Cond2",
    "trial_num": 62,
    "trial_length": 8,
    "click_num": 6,
    "RT": 751,
    "action": 0,
    "reward": -2.3
  },
  {
    "phase": "TASK",
    "condition": "Cond2",
    "trial_num": 62,
    "trial_length": 8,
    "click_num": 7,
    "RT": 715,
    "action": 0,
    "reward": -2.3
  },
  {
    "phase": "TASK",
    "condition": "Cond2",
    "trial_num": 62,
    "trial_length": 8,
    "click_num": 8,
    "RT": 765,
    "action": 0,
    "reward": -2.3
  },
  {
    "phase": "TASK",
    "condition": "Cond2",
    "trial_num": 63,
    "trial_length": 9,
    "click_num": 1,
    "RT": 1669,
    "action": 1,
    "reward": -2.8
  },
  {
    "phase": "TASK",
    "condition": "Cond2",
    "trial_num": 63,
    "trial_length": 9,
    "click_num": 2,
    "RT": 1320,
    "action": 1,
    "reward": -2.7
  },
  {
    "phase": "TASK",
    "condition": "Cond2",
    "trial_num": 63,
    "trial_length": 9,
    "click_num": 3,
    "RT": 1391,
    "action": 1,
    "reward": -3.4
  },
  {
    "phase": "TASK",
    "condition": "Cond2",
    "trial_num": 63,
    "trial_length": 9,
    "click_num": 4,
    "RT": 1561,
    "action": 1,
    "reward": -2.9
  },
  {
    "phase": "TASK",
    "condition": "Cond2",
    "trial_num": 63,
    "trial_length": 9,
    "click_num": 5,
    "RT": 1272,
    "action": 1,
    "reward": -3.6
  },
  {
    "phase": "TASK",
    "condition": "Cond2",
    "trial_num": 63,
    "trial_length": 9,
    "click_num": 6,
    "RT": 1207,
    "action": 1,
    "reward": -1.9
  },
  {
    "phase": "TASK",
    "condition": "Cond2",
    "trial_num": 63,
    "trial_length": 9,
    "click_num": 7,
    "RT": 1793,
    "action": 0,
    "reward": -1.9
  },
  {
    "phase": "TASK",
    "condition": "Cond2",
    "trial_num": 63,
    "trial_length": 9,
    "click_num": 8,
    "RT": 848,
    "action": 0,
    "reward": -1.9
  },
  {
    "phase": "TASK",
    "condition": "Cond2",
    "trial_num": 63,
    "trial_length": 9,
    "click_num": 9,
    "RT": 680,
    "action": 0,
    "reward": -1.9
  },
  {
    "phase": "TASK",
    "condition": "Cond2",
    "trial_num": 64,
    "trial_length": 7,
    "click_num": 1,
    "RT": 1224,
    "action": 1,
    "reward": -3.6
  },
  {
    "phase": "TASK",
    "condition": "Cond2",
    "trial_num": 64,
    "trial_length": 7,
    "click_num": 2,
    "RT": 1230,
    "action": 1,
    "reward": -3.5
  },
  {
    "phase": "TASK",
    "condition": "Cond2",
    "trial_num": 64,
    "trial_length": 7,
    "click_num": 3,
    "RT": 1295,
    "action": 1,
    "reward": -3.1
  },
  {
    "phase": "TASK",
    "condition": "Cond2",
    "trial_num": 64,
    "trial_length": 7,
    "click_num": 4,
    "RT": 1169,
    "action": 1,
    "reward": -3.4
  },
  {
    "phase": "TASK",
    "condition": "Cond2",
    "trial_num": 64,
    "trial_length": 7,
    "click_num": 5,
    "RT": 1159,
    "action": 1,
    "reward": -2.3
  },
  {
    "phase": "TASK",
    "condition": "Cond2",
    "trial_num": 64,
    "trial_length": 7,
    "click_num": 6,
    "RT": 1624,
    "action": 0,
    "reward": -2.3
  },
  {
    "phase": "TASK",
    "condition": "Cond2",
    "trial_num": 64,
    "trial_length": 7,
    "click_num": 7,
    "RT": 1465,
    "action": 0,
    "reward": -2.3
  },
  {
    "phase": "TASK",
    "condition": "Cond2",
    "trial_num": 65,
    "trial_length": 10,
    "click_num": 1,
    "RT": 1736,
    "action": 1,
    "reward": -2.6
  },
  {
    "phase": "TASK",
    "condition": "Cond2",
    "trial_num": 65,
    "trial_length": 10,
    "click_num": 2,
    "RT": 1888,
    "action": 1,
    "reward": -2.6
  },
  {
    "phase": "TASK",
    "condition": "Cond2",
    "trial_num": 65,
    "trial_length": 10,
    "click_num": 3,
    "RT": 1679,
    "action": 1,
    "reward": -2.4
  },
  {
    "phase": "TASK",
    "condition": "Cond2",
    "trial_num": 65,
    "trial_length": 10,
    "click_num": 4,
    "RT": 1528,
    "action": 1,
    "reward": -3.1
  },
  {
    "phase": "TASK",
    "condition": "Cond2",
    "trial_num": 65,
    "trial_length": 10,
    "click_num": 5,
    "RT": 1344,
    "action": 1,
    "reward": -4.1
  },
  {
    "phase": "TASK",
    "condition": "Cond2",
    "trial_num": 65,
    "trial_length": 10,
    "click_num": 6,
    "RT": 1697,
    "action": 1,
    "reward": -4.1
  },
  {
    "phase": "TASK",
    "condition": "Cond2",
    "trial_num": 65,
    "trial_length": 10,
    "click_num": 7,
    "RT": 1335,
    "action": 1,
    "reward": -2.1
  },
  {
    "phase": "TASK",
    "condition": "Cond2",
    "trial_num": 65,
    "trial_length": 10,
    "click_num": 8,
    "RT": 1401,
    "action": 0,
    "reward": -2.1
  },
  {
    "phase": "TASK",
    "condition": "Cond2",
    "trial_num": 65,
    "trial_length": 10,
    "click_num": 9,
    "RT": 898,
    "action": 0,
    "reward": -2.1
  },
  {
    "phase": "TASK",
    "condition": "Cond2",
    "trial_num": 65,
    "trial_length": 10,
    "click_num": 10,
    "RT": 837,
    "action": 0,
    "reward": -2.1
  },
  {
    "phase": "TASK",
    "condition": "Cond2",
    "trial_num": 66,
    "trial_length": 7,
    "click_num": 1,
    "RT": 1990,
    "action": 1,
    "reward": -3.6
  },
  {
    "phase": "TASK",
    "condition": "Cond2",
    "trial_num": 66,
    "trial_length": 7,
    "click_num": 2,
    "RT": 1160,
    "action": 1,
    "reward": -3.4
  },
  {
    "phase": "TASK",
    "condition": "Cond2",
    "trial_num": 66,
    "trial_length": 7,
    "click_num": 3,
    "RT": 1105,
    "action": 1,
    "reward": -4
  },
  {
    "phase": "TASK",
    "condition": "Cond2",
    "trial_num": 66,
    "trial_length": 7,
    "click_num": 4,
    "RT": 1087,
    "action": 1,
    "reward": -2.9
  },
  {
    "phase": "TASK",
    "condition": "Cond2",
    "trial_num": 66,
    "trial_length": 7,
    "click_num": 5,
    "RT": 1089,
    "action": 1,
    "reward": -2
  },
  {
    "phase": "TASK",
    "condition": "Cond2",
    "trial_num": 66,
    "trial_length": 7,
    "click_num": 6,
    "RT": 1426,
    "action": 0,
    "reward": -2
  },
  {
    "phase": "TASK",
    "condition": "Cond2",
    "trial_num": 66,
    "trial_length": 7,
    "click_num": 7,
    "RT": 660,
    "action": 0,
    "reward": -2
  },
  {
    "phase": "TASK",
    "condition": "Cond2",
    "trial_num": 67,
    "trial_length": 8,
    "click_num": 1,
    "RT": 1192,
    "action": 1,
    "reward": -4.6
  },
  {
    "phase": "TASK",
    "condition": "Cond2",
    "trial_num": 67,
    "trial_length": 8,
    "click_num": 2,
    "RT": 1216,
    "action": 1,
    "reward": -3.2
  },
  {
    "phase": "TASK",
    "condition": "Cond2",
    "trial_num": 67,
    "trial_length": 8,
    "click_num": 3,
    "RT": 1196,
    "action": 1,
    "reward": -3.2
  },
  {
    "phase": "TASK",
    "condition": "Cond2",
    "trial_num": 67,
    "trial_length": 8,
    "click_num": 4,
    "RT": 1076,
    "action": 1,
    "reward": -3.2
  },
  {
    "phase": "TASK",
    "condition": "Cond2",
    "trial_num": 67,
    "trial_length": 8,
    "click_num": 5,
    "RT": 1224,
    "action": 1,
    "reward": -2.5
  },
  {
    "phase": "TASK",
    "condition": "Cond2",
    "trial_num": 67,
    "trial_length": 8,
    "click_num": 6,
    "RT": 1672,
    "action": 1,
    "reward": -2.6
  },
  {
    "phase": "TASK",
    "condition": "Cond2",
    "trial_num": 67,
    "trial_length": 8,
    "click_num": 7,
    "RT": 1303,
    "action": 1,
    "reward": -3.3
  },
  {
    "phase": "TASK",
    "condition": "Cond2",
    "trial_num": 67,
    "trial_length": 8,
    "click_num": 8,
    "RT": 1177,
    "action": 0,
    "reward": -2.5
  },
  {
    "phase": "TASK",
    "condition": "Cond2",
    "trial_num": 68,
    "trial_length": 8,
    "click_num": 1,
    "RT": 1929,
    "action": 1,
    "reward": -3.7
  },
  {
    "phase": "TASK",
    "condition": "Cond2",
    "trial_num": 68,
    "trial_length": 8,
    "click_num": 2,
    "RT": 1581,
    "action": 1,
    "reward": -2.6
  },
  {
    "phase": "TASK",
    "condition": "Cond2",
    "trial_num": 68,
    "trial_length": 8,
    "click_num": 3,
    "RT": 1928,
    "action": 1,
    "reward": -2.8
  },
  {
    "phase": "TASK",
    "condition": "Cond2",
    "trial_num": 68,
    "trial_length": 8,
    "click_num": 4,
    "RT": 1320,
    "action": 1,
    "reward": -2.7
  },
  {
    "phase": "TASK",
    "condition": "Cond2",
    "trial_num": 68,
    "trial_length": 8,
    "click_num": 5,
    "RT": 1161,
    "action": 1,
    "reward": -3.3
  },
  {
    "phase": "TASK",
    "condition": "Cond2",
    "trial_num": 68,
    "trial_length": 8,
    "click_num": 6,
    "RT": 1782,
    "action": 1,
    "reward": -3.2
  },
  {
    "phase": "TASK",
    "condition": "Cond2",
    "trial_num": 68,
    "trial_length": 8,
    "click_num": 7,
    "RT": 1528,
    "action": 1,
    "reward": -3.5
  },
  {
    "phase": "TASK",
    "condition": "Cond2",
    "trial_num": 68,
    "trial_length": 8,
    "click_num": 8,
    "RT": 1306,
    "action": 1,
    "reward": -2.3
  },
  {
    "phase": "TASK",
    "condition": "Cond2",
    "trial_num": 69,
    "trial_length": 10,
    "click_num": 1,
    "RT": 3935,
    "action": 1,
    "reward": -3.6
  },
  {
    "phase": "TASK",
    "condition": "Cond2",
    "trial_num": 69,
    "trial_length": 10,
    "click_num": 2,
    "RT": 1358,
    "action": 1,
    "reward": -1.9
  },
  {
    "phase": "TASK",
    "condition": "Cond2",
    "trial_num": 69,
    "trial_length": 10,
    "click_num": 3,
    "RT": 1545,
    "action": 0,
    "reward": -1.9
  },
  {
    "phase": "TASK",
    "condition": "Cond2",
    "trial_num": 69,
    "trial_length": 10,
    "click_num": 4,
    "RT": 729,
    "action": 0,
    "reward": -1.9
  },
  {
    "phase": "TASK",
    "condition": "Cond2",
    "trial_num": 69,
    "trial_length": 10,
    "click_num": 5,
    "RT": 648,
    "action": 0,
    "reward": -1.9
  },
  {
    "phase": "TASK",
    "condition": "Cond2",
    "trial_num": 69,
    "trial_length": 10,
    "click_num": 6,
    "RT": 856,
    "action": 0,
    "reward": -1.9
  },
  {
    "phase": "TASK",
    "condition": "Cond2",
    "trial_num": 69,
    "trial_length": 10,
    "click_num": 7,
    "RT": 847,
    "action": 0,
    "reward": -1.9
  },
  {
    "phase": "TASK",
    "condition": "Cond2",
    "trial_num": 69,
    "trial_length": 10,
    "click_num": 8,
    "RT": 658,
    "action": 0,
    "reward": -1.9
  },
  {
    "phase": "TASK",
    "condition": "Cond2",
    "trial_num": 69,
    "trial_length": 10,
    "click_num": 9,
    "RT": 630,
    "action": 0,
    "reward": -1.9
  },
  {
    "phase": "TASK",
    "condition": "Cond2",
    "trial_num": 69,
    "trial_length": 10,
    "click_num": 10,
    "RT": 689,
    "action": 0,
    "reward": -1.9
  },
  {
    "phase": "TASK",
    "condition": "Cond2",
    "trial_num": 70,
    "trial_length": 9,
    "click_num": 1,
    "RT": 1534,
    "action": 1,
    "reward": -3.6
  },
  {
    "phase": "TASK",
    "condition": "Cond2",
    "trial_num": 70,
    "trial_length": 9,
    "click_num": 2,
    "RT": 1576,
    "action": 1,
    "reward": -3.5
  },
  {
    "phase": "TASK",
    "condition": "Cond2",
    "trial_num": 70,
    "trial_length": 9,
    "click_num": 3,
    "RT": 1216,
    "action": 1,
    "reward": -2.7
  },
  {
    "phase": "TASK",
    "condition": "Cond2",
    "trial_num": 70,
    "trial_length": 9,
    "click_num": 4,
    "RT": 1159,
    "action": 1,
    "reward": -2.8
  },
  {
    "phase": "TASK",
    "condition": "Cond2",
    "trial_num": 70,
    "trial_length": 9,
    "click_num": 5,
    "RT": 1143,
    "action": 1,
    "reward": -3.6
  },
  {
    "phase": "TASK",
    "condition": "Cond2",
    "trial_num": 70,
    "trial_length": 9,
    "click_num": 6,
    "RT": 1008,
    "action": 1,
    "reward": -3
  },
  {
    "phase": "TASK",
    "condition": "Cond2",
    "trial_num": 70,
    "trial_length": 9,
    "click_num": 7,
    "RT": 1040,
    "action": 1,
    "reward": -3.2
  },
  {
    "phase": "TASK",
    "condition": "Cond2",
    "trial_num": 70,
    "trial_length": 9,
    "click_num": 8,
    "RT": 1057,
    "action": 1,
    "reward": -3.8
  },
  {
    "phase": "TASK",
    "condition": "Cond2",
    "trial_num": 70,
    "trial_length": 9,
    "click_num": 9,
    "RT": 1032,
    "action": 1,
    "reward": -2
  },
  {
    "phase": "TASK",
    "condition": "Cond2",
    "trial_num": 71,
    "trial_length": 8,
    "click_num": 1,
    "RT": 1251,
    "action": 1,
    "reward": -2.6
  },
  {
    "phase": "TASK",
    "condition": "Cond2",
    "trial_num": 71,
    "trial_length": 8,
    "click_num": 2,
    "RT": 1212,
    "action": 1,
    "reward": -2.9
  },
  {
    "phase": "TASK",
    "condition": "Cond2",
    "trial_num": 71,
    "trial_length": 8,
    "click_num": 3,
    "RT": 1472,
    "action": 1,
    "reward": -3
  },
  {
    "phase": "TASK",
    "condition": "Cond2",
    "trial_num": 71,
    "trial_length": 8,
    "click_num": 4,
    "RT": 1353,
    "action": 1,
    "reward": -3.7
  },
  {
    "phase": "TASK",
    "condition": "Cond2",
    "trial_num": 71,
    "trial_length": 8,
    "click_num": 5,
    "RT": 975,
    "action": 1,
    "reward": -3
  },
  {
    "phase": "TASK",
    "condition": "Cond2",
    "trial_num": 71,
    "trial_length": 8,
    "click_num": 6,
    "RT": 1008,
    "action": 1,
    "reward": -2.2
  },
  {
    "phase": "TASK",
    "condition": "Cond2",
    "trial_num": 71,
    "trial_length": 8,
    "click_num": 7,
    "RT": 1553,
    "action": 0,
    "reward": -2.2
  },
  {
    "phase": "TASK",
    "condition": "Cond2",
    "trial_num": 71,
    "trial_length": 8,
    "click_num": 8,
    "RT": 777,
    "action": 0,
    "reward": -2.2
  },
  {
    "phase": "TASK",
    "condition": "Cond2",
    "trial_num": 72,
    "trial_length": 6,
    "click_num": 1,
    "RT": 4018,
    "action": 1,
    "reward": -2.7
  },
  {
    "phase": "TASK",
    "condition": "Cond2",
    "trial_num": 72,
    "trial_length": 6,
    "click_num": 2,
    "RT": 1241,
    "action": 1,
    "reward": -2.6
  },
  {
    "phase": "TASK",
    "condition": "Cond2",
    "trial_num": 72,
    "trial_length": 6,
    "click_num": 3,
    "RT": 1439,
    "action": 1,
    "reward": -3.2
  },
  {
    "phase": "TASK",
    "condition": "Cond2",
    "trial_num": 72,
    "trial_length": 6,
    "click_num": 4,
    "RT": 1062,
    "action": 1,
    "reward": -3.8
  },
  {
    "phase": "TASK",
    "condition": "Cond2",
    "trial_num": 72,
    "trial_length": 6,
    "click_num": 5,
    "RT": 1108,
    "action": 1,
    "reward": -3.7
  },
  {
    "phase": "TASK",
    "condition": "Cond2",
    "trial_num": 72,
    "trial_length": 6,
    "click_num": 6,
    "RT": 1334,
    "action": 1,
    "reward": -2.5
  },
  {
    "phase": "TASK",
    "condition": "Cond2",
    "trial_num": 73,
    "trial_length": 10,
    "click_num": 1,
    "RT": 1654,
    "action": 1,
    "reward": -2.6
  },
  {
    "phase": "TASK",
    "condition": "Cond2",
    "trial_num": 73,
    "trial_length": 10,
    "click_num": 2,
    "RT": 1905,
    "action": 1,
    "reward": -1.9
  },
  {
    "phase": "TASK",
    "condition": "Cond2",
    "trial_num": 73,
    "trial_length": 10,
    "click_num": 3,
    "RT": 2606,
    "action": 0,
    "reward": -1.9
  },
  {
    "phase": "TASK",
    "condition": "Cond2",
    "trial_num": 73,
    "trial_length": 10,
    "click_num": 4,
    "RT": 3417,
    "action": 0,
    "reward": -1.9
  },
  {
    "phase": "TASK",
    "condition": "Cond2",
    "trial_num": 73,
    "trial_length": 10,
    "click_num": 5,
    "RT": 1640,
    "action": 0,
    "reward": -1.9
  },
  {
    "phase": "TASK",
    "condition": "Cond2",
    "trial_num": 73,
    "trial_length": 10,
    "click_num": 6,
    "RT": 848,
    "action": 0,
    "reward": -1.9
  },
  {
    "phase": "TASK",
    "condition": "Cond2",
    "trial_num": 73,
    "trial_length": 10,
    "click_num": 7,
    "RT": 882,
    "action": 0,
    "reward": -1.9
  },
  {
    "phase": "TASK",
    "condition": "Cond2",
    "trial_num": 73,
    "trial_length": 10,
    "click_num": 8,
    "RT": 765,
    "action": 0,
    "reward": -1.9
  },
  {
    "phase": "TASK",
    "condition": "Cond2",
    "trial_num": 73,
    "trial_length": 10,
    "click_num": 9,
    "RT": 736,
    "action": 0,
    "reward": -1.9
  },
  {
    "phase": "TASK",
    "condition": "Cond2",
    "trial_num": 73,
    "trial_length": 10,
    "click_num": 10,
    "RT": 777,
    "action": 0,
    "reward": -1.9
  },
  {
    "phase": "TASK",
    "condition": "Cond2",
    "trial_num": 74,
    "trial_length": 8,
    "click_num": 1,
    "RT": 1365,
    "action": 1,
    "reward": -2.1
  },
  {
    "phase": "TASK",
    "condition": "Cond2",
    "trial_num": 74,
    "trial_length": 8,
    "click_num": 2,
    "RT": 1537,
    "action": 0,
    "reward": -2.1
  },
  {
    "phase": "TASK",
    "condition": "Cond2",
    "trial_num": 74,
    "trial_length": 8,
    "click_num": 3,
    "RT": 783,
    "action": 0,
    "reward": -2.1
  },
  {
    "phase": "TASK",
    "condition": "Cond2",
    "trial_num": 74,
    "trial_length": 8,
    "click_num": 4,
    "RT": 696,
    "action": 0,
    "reward": -2.1
  },
  {
    "phase": "TASK",
    "condition": "Cond2",
    "trial_num": 74,
    "trial_length": 8,
    "click_num": 5,
    "RT": 664,
    "action": 0,
    "reward": -2.1
  },
  {
    "phase": "TASK",
    "condition": "Cond2",
    "trial_num": 74,
    "trial_length": 8,
    "click_num": 6,
    "RT": 648,
    "action": 0,
    "reward": -2.1
  },
  {
    "phase": "TASK",
    "condition": "Cond2",
    "trial_num": 74,
    "trial_length": 8,
    "click_num": 7,
    "RT": 655,
    "action": 0,
    "reward": -2.1
  },
  {
    "phase": "TASK",
    "condition": "Cond2",
    "trial_num": 74,
    "trial_length": 8,
    "click_num": 8,
    "RT": 657,
    "action": 0,
    "reward": -2.1
  },
  {
    "phase": "TASK",
    "condition": "Cond2",
    "trial_num": 75,
    "trial_length": 6,
    "click_num": 1,
    "RT": 1288,
    "action": 1,
    "reward": -2.5
  },
  {
    "phase": "TASK",
    "condition": "Cond2",
    "trial_num": 75,
    "trial_length": 6,
    "click_num": 2,
    "RT": 1648,
    "action": 1,
    "reward": -2.6
  },
  {
    "phase": "TASK",
    "condition": "Cond2",
    "trial_num": 75,
    "trial_length": 6,
    "click_num": 3,
    "RT": 1160,
    "action": 1,
    "reward": -3.4
  },
  {
    "phase": "TASK",
    "condition": "Cond2",
    "trial_num": 75,
    "trial_length": 6,
    "click_num": 4,
    "RT": 984,
    "action": 1,
    "reward": -3.3
  },
  {
    "phase": "TASK",
    "condition": "Cond2",
    "trial_num": 75,
    "trial_length": 6,
    "click_num": 5,
    "RT": 1416,
    "action": 0,
    "reward": -2.5
  },
  {
    "phase": "TASK",
    "condition": "Cond2",
    "trial_num": 75,
    "trial_length": 6,
    "click_num": 6,
    "RT": 856,
    "action": 0,
    "reward": -2.5
  },
  {
    "phase": "TASK",
    "condition": "Cond2",
    "trial_num": 76,
    "trial_length": 7,
    "click_num": 1,
    "RT": 1241,
    "action": 1,
    "reward": -4.1
  },
  {
    "phase": "TASK",
    "condition": "Cond2",
    "trial_num": 76,
    "trial_length": 7,
    "click_num": 2,
    "RT": 1334,
    "action": 1,
    "reward": -3.7
  },
  {
    "phase": "TASK",
    "condition": "Cond2",
    "trial_num": 76,
    "trial_length": 7,
    "click_num": 3,
    "RT": 1241,
    "action": 1,
    "reward": -2.6
  },
  {
    "phase": "TASK",
    "condition": "Cond2",
    "trial_num": 76,
    "trial_length": 7,
    "click_num": 4,
    "RT": 1758,
    "action": 0,
    "reward": -2.6
  },
  {
    "phase": "TASK",
    "condition": "Cond2",
    "trial_num": 76,
    "trial_length": 7,
    "click_num": 5,
    "RT": 862,
    "action": 1,
    "reward": -3.8
  },
  {
    "phase": "TASK",
    "condition": "Cond2",
    "trial_num": 76,
    "trial_length": 7,
    "click_num": 6,
    "RT": 1582,
    "action": 1,
    "reward": -2.5
  },
  {
    "phase": "TASK",
