[{"phase":"TASK","trial_num":1,"trial_length":10,"click_num":1,"RT":4084.5,"action":1,"reward":3.4},{"phase":"TASK","trial_num":1,"trial_length":10,"click_num":2,"RT":4743.799999999814,"action":1,"reward":3},{"phase":"TASK","trial_num":1,"trial_length":10,"click_num":3,"RT":2735.899999999907,"action":1,"reward":2.9},{"phase":"TASK","trial_num":1,"trial_length":10,"click_num":4,"RT":2224,"action":1,"reward":2.8},{"phase":"TASK","trial_num":1,"trial_length":10,"click_num":5,"RT":2872,"action":0,"reward":3.4},{"phase":"TASK","trial_num":1,"trial_length":10,"click_num":6,"RT":2744.100000000093,"action":1,"reward":2.3},{"phase":"TASK","trial_num":1,"trial_length":10,"click_num":7,"RT":2760,"action":0,"reward":3.4},{"phase":"TASK","trial_num":1,"trial_length":10,"click_num":8,"RT":3135.899999999907,"action":1,"reward":3},{"phase":"TASK","trial_num":1,"trial_length":10,"click_num":9,"RT":3472,"action":0,"reward":3.4},{"phase":"TASK","trial_num":1,"trial_length":10,"click_num":10,"RT":3240.100000000093,"action":0,"reward":3.4},{"phase":"TASK","trial_num":2,"trial_length":7,"click_num":1,"RT":2383,"action":1,"reward":2.6},{"phase":"TASK","trial_num":2,"trial_length":7,"click_num":2,"RT":2743.899999999907,"action":1,"reward":2.2},{"phase":"TASK","trial_num":2,"trial_length":7,"click_num":3,"RT":2072,"action":1,"reward":2.6},{"phase":"TASK","trial_num":2,"trial_length":7,"click_num":4,"RT":2064.100000000093,"action":1,"reward":2.8},{"phase":"TASK","trial_num":2,"trial_length":7,"click_num":5,"RT":2208.100000000093,"action":1,"reward":3.3},{"phase":"TASK","trial_num":2,"trial_length":7,"click_num":6,"RT":3872,"action":0,"reward":3.3},{"phase":"TASK","trial_num":2,"trial_length":7,"click_num":7,"RT":1368,"action":0,"reward":3.3},{"phase":"TASK","trial_num":3,"trial_length":7,"click_num":1,"RT":2406.7999999998137,"action":1,"reward":2.8},{"phase":"TASK","trial_num":3,"trial_length":7,"click_num":2,"RT":1447.8999999999069,"action":1,"reward":3.7},{"phase":"TASK","trial_num":3,"trial_length":7,"click_num":3,"RT":2824,"action":1,"reward":4},{"phase":"TASK","trial_num":3,"trial_length":7,"click_num":4,"RT":3392.2000000001863,"action":1,"reward":3.4},{"phase":"TASK","trial_num":3,"trial_length":7,"click_num":5,"RT":1815.8999999999069,"action":0,"reward":4},{"phase":"TASK","trial_num":3,"trial_length":7,"click_num":6,"RT":1344,"action":0,"reward":4},{"phase":"TASK","trial_num":3,"trial_length":7,"click_num":7,"RT":1368.2000000001863,"action":0,"reward":4},{"phase":"TASK","trial_num":4,"trial_length":10,"click_num":1,"RT":1503,"action":1,"reward":4},{"phase":"TASK","trial_num":4,"trial_length":10,"click_num":2,"RT":2048.100000000093,"action":1,"reward":3.5},{"phase":"TASK","trial_num":4,"trial_length":10,"click_num":3,"RT":3135.899999999907,"action":1,"reward":3},{"phase":"TASK","trial_num":4,"trial_length":10,"click_num":4,"RT":1544.1000000000931,"action":0,"reward":4},{"phase":"TASK","trial_num":4,"trial_length":10,"click_num":5,"RT":1375.7000000001863,"action":1,"reward":3},{"phase":"TASK","trial_num":4,"trial_length":10,"click_num":6,"RT":1376.0999999996275,"action":1,"reward":2.9},{"phase":"TASK","trial_num":4,"trial_length":10,"click_num":7,"RT":1536.2000000001863,"action":1,"reward":1.8},{"phase":"TASK","trial_num":4,"trial_length":10,"click_num":8,"RT":1495.8999999999069,"action":0,"reward":4},{"phase":"TASK","trial_num":4,"trial_length":10,"click_num":9,"RT":952.1000000000931,"action":0,"reward":4},{"phase":"TASK","trial_num":4,"trial_length":10,"click_num":10,"RT":999.8999999999069,"action":0,"reward":4},{"phase":"TASK","trial_num":5,"trial_length":6,"click_num":1,"RT":1679.6999999997206,"action":1,"reward":2.6},{"phase":"TASK","trial_num":5,"trial_length":6,"click_num":2,"RT":1440.1000000000931,"action":1,"reward":3},{"phase":"TASK","trial_num":5,"trial_length":6,"click_num":3,"RT":1383.8999999999069,"action":1,"reward":3.4},{"phase":"TASK","trial_num":5,"trial_length":6,"click_num":4,"RT":1456,"action":1,"reward":3.6},{"phase":"TASK","trial_num":5,"trial_length":6,"click_num":5,"RT":3128.100000000093,"action":1,"reward":3.5},{"phase":"TASK","trial_num":5,"trial_length":6,"click_num":6,"RT":1943.8999999999069,"action":0,"reward":3.6},{"phase":"TASK","trial_num":6,"trial_length":6,"click_num":1,"RT":3055.6999999997206,"action":1,"reward":3.2},{"phase":"TASK","trial_num":6,"trial_length":6,"click_num":2,"RT":1632,"action":1,"reward":2.6},{"phase":"TASK","trial_num":6,"trial_length":6,"click_num":3,"RT":1280.1000000000931,"action":1,"reward":3.9},{"phase":"TASK","trial_num":6,"trial_length":6,"click_num":4,"RT":1647.8999999999069,"action":1,"reward":3.1},{"phase":"TASK","trial_num":6,"trial_length":6,"click_num":5,"RT":1472,"action":0,"reward":3.9},{"phase":"TASK","trial_num":6,"trial_length":6,"click_num":6,"RT":1016.1000000000931,"action":0,"reward":3.9},{"phase":"TASK","trial_num":7,"trial_length":5,"click_num":1,"RT":2031.8999999999069,"action":1,"reward":3.4},{"phase":"TASK","trial_num":7,"trial_length":5,"click_num":2,"RT":1431.8999999999069,"action":1,"reward":3.3},{"phase":"TASK","trial_num":7,"trial_length":5,"click_num":3,"RT":1272,"action":1,"reward":2.9},{"phase":"TASK","trial_num":7,"trial_length":5,"click_num":4,"RT":1600,"action":1,"reward":1.2},{"phase":"TASK","trial_num":7,"trial_length":5,"click_num":5,"RT":2688,"action":0,"reward":3.4},{"phase":"TASK","trial_num":8,"trial_length":6,"click_num":1,"RT":1359.6999999997206,"action":1,"reward":2.8},{"phase":"TASK","trial_num":8,"trial_length":6,"click_num":2,"RT":1696.1000000000931,"action":1,"reward":1.8},{"phase":"TASK","trial_num":8,"trial_length":6,"click_num":3,"RT":2416,"action":1,"reward":2.9},{"phase":"TASK","trial_num":8,"trial_length":6,"click_num":4,"RT":1711.8999999999069,"action":1,"reward":3},{"phase":"TASK","trial_num":8,"trial_length":6,"click_num":5,"RT":1544.1000000000931,"action":1,"reward":3.3},{"phase":"TASK","trial_num":8,"trial_length":6,"click_num":6,"RT":1855.7999999998137,"action":0,"reward":3.3},{"phase":"TASK","trial_num":9,"trial_length":9,"click_num":1,"RT":1239.7999999998137,"action":1,"reward":2.6},{"phase":"TASK","trial_num":9,"trial_length":9,"click_num":2,"RT":1375.8999999999069,"action":1,"reward":1.5},{"phase":"TASK","trial_num":9,"trial_length":9,"click_num":3,"RT":1296,"action":1,"reward":2.5},{"phase":"TASK","trial_num":9,"trial_length":9,"click_num":4,"RT":1408,"action":1,"reward":2.6},{"phase":"TASK","trial_num":9,"trial_length":9,"click_num":5,"RT":1448,"action":1,"reward":3.3},{"phase":"TASK","trial_num":9,"trial_length":9,"click_num":6,"RT":1512,"action":1,"reward":3.5},{"phase":"TASK","trial_num":9,"trial_length":9,"click_num":7,"RT":1192,"action":1,"reward":2.5},{"phase":"TASK","trial_num":9,"trial_length":9,"click_num":8,"RT":1648,"action":0,"reward":3.5},{"phase":"TASK","trial_num":9,"trial_length":9,"click_num":9,"RT":1040,"action":0,"reward":3.5},{"phase":"TASK","trial_num":10,"trial_length":5,"click_num":1,"RT":3647.7000000001863,"action":1,"reward":2.9},{"phase":"TASK","trial_num":10,"trial_length":5,"click_num":2,"RT":3712,"action":1,"reward":3.3},{"phase":"TASK","trial_num":10,"trial_length":5,"click_num":3,"RT":1264,"action":1,"reward":2.6},{"phase":"TASK","trial_num":10,"trial_length":5,"click_num":4,"RT":1511.8999999999069,"action":1,"reward":3.3},{"phase":"TASK","trial_num":10,"trial_length":5,"click_num":5,"RT":3224,"action":0,"reward":3.3},{"phase":"TASK","trial_num":11,"trial_length":6,"click_num":1,"RT":1367.7999999998137,"action":1,"reward":2.5},{"phase":"TASK","trial_num":11,"trial_length":6,"click_num":2,"RT":1440,"action":1,"reward":2.8},{"phase":"TASK","trial_num":11,"trial_length":6,"click_num":3,"RT":1623.8999999999069,"action":1,"reward":2.2},{"phase":"TASK","trial_num":11,"trial_length":6,"click_num":4,"RT":2696,"action":1,"reward":3},{"phase":"TASK","trial_num":11,"trial_length":6,"click_num":5,"RT":1392,"action":1,"reward":2},{"phase":"TASK","trial_num":11,"trial_length":6,"click_num":6,"RT":1496,"action":0,"reward":3},{"phase":"TASK","trial_num":12,"trial_length":8,"click_num":1,"RT":1239.6999999997206,"action":1,"reward":3},{"phase":"TASK","trial_num":12,"trial_length":8,"click_num":2,"RT":2200,"action":1,"reward":3.1},{"phase":"TASK","trial_num":12,"trial_length":8,"click_num":3,"RT":1312.2000000001863,"action":1,"reward":3.5},{"phase":"TASK","trial_num":12,"trial_length":8,"click_num":4,"RT":1319.7999999998137,"action":1,"reward":2.2},{"phase":"TASK","trial_num":12,"trial_length":8,"click_num":5,"RT":1672.1000000000931,"action":1,"reward":3.6},{"phase":"TASK","trial_num":12,"trial_length":8,"click_num":6,"RT":1559.7999999998137,"action":1,"reward":3.7},{"phase":"TASK","trial_num":12,"trial_length":8,"click_num":7,"RT":2400.2000000001863,"action":0,"reward":3.7},{"phase":"TASK","trial_num":12,"trial_length":8,"click_num":8,"RT":1063.8999999999069,"action":0,"reward":3.7},{"phase":"TASK","trial_num":13,"trial_length":9,"click_num":1,"RT":2095.2999999998137,"action":1,"reward":3.2},{"phase":"TASK","trial_num":13,"trial_length":9,"click_num":2,"RT":2040.3999999999069,"action":1,"reward":2.6},{"phase":"TASK","trial_num":13,"trial_length":9,"click_num":3,"RT":1392,"action":1,"reward":2.7},{"phase":"TASK","trial_num":13,"trial_length":9,"click_num":4,"RT":1352.1000000000931,"action":1,"reward":3.7},{"phase":"TASK","trial_num":13,"trial_length":9,"click_num":5,"RT":1664.1000000000931,"action":1,"reward":2.5},{"phase":"TASK","trial_num":13,"trial_length":9,"click_num":6,"RT":1255.7999999998137,"action":1,"reward":4.7},{"phase":"TASK","trial_num":13,"trial_length":9,"click_num":7,"RT":2440,"action":0,"reward":4.7},{"phase":"TASK","trial_num":13,"trial_length":9,"click_num":8,"RT":1040,"action":0,"reward":4.7},{"phase":"TASK","trial_num":13,"trial_length":9,"click_num":9,"RT":1112,"action":0,"reward":4.7},{"phase":"TASK","trial_num":14,"trial_length":8,"click_num":1,"RT":1479.6000000000931,"action":1,"reward":3.3},{"phase":"TASK","trial_num":14,"trial_length":8,"click_num":2,"RT":2208.100000000093,"action":1,"reward":3.6},{"phase":"TASK","trial_num":14,"trial_length":8,"click_num":3,"RT":1327.8999999999069,"action":1,"reward":2.3},{"phase":"TASK","trial_num":14,"trial_length":8,"click_num":4,"RT":1272,"action":1,"reward":3.4},{"phase":"TASK","trial_num":14,"trial_length":8,"click_num":5,"RT":1415.8999999999069,"action":1,"reward":3.9},{"phase":"TASK","trial_num":14,"trial_length":8,"click_num":6,"RT":1648.1000000000931,"action":1,"reward":3.5},{"phase":"TASK","trial_num":14,"trial_length":8,"click_num":7,"RT":1799.8999999999069,"action":0,"reward":3.9},{"phase":"TASK","trial_num":14,"trial_length":8,"click_num":8,"RT":1120.1000000000931,"action":0,"reward":3.9},{"phase":"TASK","trial_num":15,"trial_length":5,"click_num":1,"RT":1631.6999999997206,"action":1,"reward":3.1},{"phase":"TASK","trial_num":15,"trial_length":5,"click_num":2,"RT":1416,"action":1,"reward":3.3},{"phase":"TASK","trial_num":15,"trial_length":5,"click_num":3,"RT":1224,"action":1,"reward":3.1},{"phase":"TASK","trial_num":15,"trial_length":5,"click_num":4,"RT":2200.2000000001863,"action":1,"reward":2.7},{"phase":"TASK","trial_num":15,"trial_length":5,"click_num":5,"RT":2199.7999999998137,"action":0,"reward":3.3},{"phase":"TASK","trial_num":16,"trial_length":6,"click_num":1,"RT":1279.7999999998137,"action":1,"reward":3.6},{"phase":"TASK","trial_num":16,"trial_length":6,"click_num":2,"RT":1736.1000000000931,"action":1,"reward":3.6},{"phase":"TASK","trial_num":16,"trial_length":6,"click_num":3,"RT":1599.8999999999069,"action":1,"reward":3.7},{"phase":"TASK","trial_num":16,"trial_length":6,"click_num":4,"RT":1424,"action":1,"reward":2.8},{"phase":"TASK","trial_num":16,"trial_length":6,"click_num":5,"RT":1312,"action":1,"reward":3.2},{"phase":"TASK","trial_num":16,"trial_length":6,"click_num":6,"RT":1400,"action":0,"reward":3.7},{"phase":"TASK","trial_num":17,"trial_length":5,"click_num":1,"RT":1319.6999999997206,"action":1,"reward":2.7},{"phase":"TASK","trial_num":17,"trial_length":5,"click_num":2,"RT":2192.100000000093,"action":1,"reward":2.8},{"phase":"TASK","trial_num":17,"trial_length":5,"click_num":3,"RT":1295.8999999999069,"action":1,"reward":3.4},{"phase":"TASK","trial_num":17,"trial_length":5,"click_num":4,"RT":1832,"action":1,"reward":3.1},{"phase":"TASK","trial_num":17,"trial_length":5,"click_num":5,"RT":1328,"action":0,"reward":3.4},{"phase":"TASK","trial_num":18,"trial_length":10,"click_num":1,"RT":1487.7999999998137,"action":1,"reward":2.8},{"phase":"TASK","trial_num":18,"trial_length":10,"click_num":2,"RT":1696.1000000000931,"action":1,"reward":3.6},{"phase":"TASK","trial_num":18,"trial_length":10,"click_num":3,"RT":2016,"action":1,"reward":3.1},{"phase":"TASK","trial_num":18,"trial_length":10,"click_num":4,"RT":2007.8999999999069,"action":1,"reward":2.3},{"phase":"TASK","trial_num":18,"trial_length":10,"click_num":5,"RT":1320,"action":1,"reward":2},{"phase":"TASK","trial_num":18,"trial_length":10,"click_num":6,"RT":1560,"action":0,"reward":3.6},{"phase":"TASK","trial_num":18,"trial_length":10,"click_num":7,"RT":1248.1000000000931,"action":1,"reward":2.8},{"phase":"TASK","trial_num":18,"trial_length":10,"click_num":8,"RT":1304,"action":0,"reward":3.6},{"phase":"TASK","trial_num":18,"trial_length":10,"click_num":9,"RT":1079.8999999999069,"action":0,"reward":3.6},{"phase":"TASK","trial_num":18,"trial_length":10,"click_num":10,"RT":1120.1000000000931,"action":0,"reward":3.6},{"phase":"TASK","trial_num":19,"trial_length":9,"click_num":1,"RT":1240.2999999998137,"action":1,"reward":3.9},{"phase":"TASK","trial_num":19,"trial_length":9,"click_num":2,"RT":3207.5,"action":1,"reward":1.8},{"phase":"TASK","trial_num":19,"trial_length":9,"click_num":3,"RT":1711.8999999999069,"action":1,"reward":2.1},{"phase":"TASK","trial_num":19,"trial_length":9,"click_num":4,"RT":1448.1000000000931,"action":1,"reward":3.2},{"phase":"TASK","trial_num":19,"trial_length":9,"click_num":5,"RT":1328.1000000000931,"action":1,"reward":3.8},{"phase":"TASK","trial_num":19,"trial_length":9,"click_num":6,"RT":1552,"action":1,"reward":2.1},{"phase":"TASK","trial_num":19,"trial_length":9,"click_num":7,"RT":1335.8999999999069,"action":0,"reward":3.9},{"phase":"TASK","trial_num":19,"trial_length":9,"click_num":8,"RT":992.1000000000931,"action":0,"reward":3.9},{"phase":"TASK","trial_num":19,"trial_length":9,"click_num":9,"RT":1063.8999999999069,"action":0,"reward":3.9},{"phase":"TASK","trial_num":20,"trial_length":7,"click_num":1,"RT":1311.6000000000931,"action":1,"reward":3.5},{"phase":"TASK","trial_num":20,"trial_length":7,"click_num":2,"RT":1640,"action":1,"reward":2},{"phase":"TASK","trial_num":20,"trial_length":7,"click_num":3,"RT":1312,"action":1,"reward":3.8},{"phase":"TASK","trial_num":20,"trial_length":7,"click_num":4,"RT":2504,"action":1,"reward":3},{"phase":"TASK","trial_num":20,"trial_length":7,"click_num":5,"RT":1504,"action":0,"reward":3.8},{"phase":"TASK","trial_num":20,"trial_length":7,"click_num":6,"RT":1152,"action":0,"reward":3.8},{"phase":"TASK","trial_num":20,"trial_length":7,"click_num":7,"RT":904.3000000002794,"action":0,"reward":3.8},{"phase":"TASK","trial_num":21,"trial_length":9,"click_num":1,"RT":2271.5,"action":1,"reward":3.1},{"phase":"TASK","trial_num":21,"trial_length":9,"click_num":2,"RT":2048,"action":1,"reward":2.4},{"phase":"TASK","trial_num":21,"trial_length":9,"click_num":3,"RT":2087.899999999907,"action":1,"reward":2.4},{"phase":"TASK","trial_num":21,"trial_length":9,"click_num":4,"RT":3296,"action":1,"reward":3.3},{"phase":"TASK","trial_num":21,"trial_length":9,"click_num":5,"RT":1712.2000000001863,"action":1,"reward":3.1},{"phase":"TASK","trial_num":21,"trial_length":9,"click_num":6,"RT":1607.8999999999069,"action":1,"reward":2.8},{"phase":"TASK","trial_num":21,"trial_length":9,"click_num":7,"RT":1583.8999999999069,"action":0,"reward":3.3},{"phase":"TASK","trial_num":21,"trial_length":9,"click_num":8,"RT":1096.1000000000931,"action":0,"reward":3.3},{"phase":"TASK","trial_num":21,"trial_length":9,"click_num":9,"RT":1440,"action":1,"reward":2.9},{"phase":"TASK","trial_num":22,"trial_length":9,"click_num":1,"RT":2039.5,"action":1,"reward":3},{"phase":"TASK","trial_num":22,"trial_length":9,"click_num":2,"RT":1672,"action":1,"reward":3.5},{"phase":"TASK","trial_num":22,"trial_length":9,"click_num":3,"RT":18144.100000000093,"action":1,"reward":2.9},{"phase":"TASK","trial_num":22,"trial_length":9,"click_num":4,"RT":1967.8999999999069,"action":0,"reward":3.5},{"phase":"TASK","trial_num":22,"trial_length":9,"click_num":5,"RT":1840,"action":1,"reward":3.5},{"phase":"TASK","trial_num":22,"trial_length":9,"click_num":6,"RT":1672,"action":1,"reward":3.4},{"phase":"TASK","trial_num":22,"trial_length":9,"click_num":7,"RT":1448.1000000000931,"action":1,"reward":2.9},{"phase":"TASK","trial_num":22,"trial_length":9,"click_num":8,"RT":1375.8999999999069,"action":0,"reward":3.5},{"phase":"TASK","trial_num":22,"trial_length":9,"click_num":9,"RT":1072,"action":0,"reward":3.5},{"phase":"TASK","trial_num":23,"trial_length":9,"click_num":1,"RT":2199.600000000093,"action":1,"reward":3},{"phase":"TASK","trial_num":23,"trial_length":9,"click_num":2,"RT":1320,"action":1,"reward":2.9},{"phase":"TASK","trial_num":23,"trial_length":9,"click_num":3,"RT":1216,"action":1,"reward":2.5},{"phase":"TASK","trial_num":23,"trial_length":9,"click_num":4,"RT":1288,"action":1,"reward":3.3},{"phase":"TASK","trial_num":23,"trial_length":9,"click_num":5,"RT":1440,"action":1,"reward":3.7},{"phase":"TASK","trial_num":23,"trial_length":9,"click_num":6,"RT":1264.1000000000931,"action":1,"reward":2.6},{"phase":"TASK","trial_num":23,"trial_length":9,"click_num":7,"RT":2247.899999999907,"action":0,"reward":3.7},{"phase":"TASK","trial_num":23,"trial_length":9,"click_num":8,"RT":1240,"action":0,"reward":3.7},{"phase":"TASK","trial_num":23,"trial_length":9,"click_num":9,"RT":880.1000000000931,"action":1,"reward":3.7},{"phase":"TASK","trial_num":24,"trial_length":8,"click_num":1,"RT":1807.6000000000931,"action":1,"reward":2.2},{"phase":"TASK","trial_num":24,"trial_length":8,"click_num":2,"RT":1720,"action":1,"reward":3.8},{"phase":"TASK","trial_num":24,"trial_length":8,"click_num":3,"RT":1544,"action":1,"reward":3.1},{"phase":"TASK","trial_num":24,"trial_length":8,"click_num":4,"RT":1464,"action":1,"reward":4.1},{"phase":"TASK","trial_num":24,"trial_length":8,"click_num":5,"RT":1656.1000000000931,"action":1,"reward":4.2},{"phase":"TASK","trial_num":24,"trial_length":8,"click_num":6,"RT":1696.7999999998137,"action":1,"reward":4.2},{"phase":"TASK","trial_num":24,"trial_length":8,"click_num":7,"RT":2223.2000000001863,"action":1,"reward":2.7},{"phase":"TASK","trial_num":24,"trial_length":8,"click_num":8,"RT":1303.7000000001863,"action":0,"reward":4.2},{"phase":"TASK","trial_num":25,"trial_length":5,"click_num":1,"RT":1440.1999999997206,"action":1,"reward":2.9},{"phase":"TASK","trial_num":25,"trial_length":5,"click_num":2,"RT":1775.6000000000931,"action":1,"reward":3.7},{"phase":"TASK","trial_num":25,"trial_length":5,"click_num":3,"RT":1496,"action":1,"reward":3},{"phase":"TASK","trial_num":25,"trial_length":5,"click_num":4,"RT":4167.799999999814,"action":0,"reward":3.7},{"phase":"TASK","trial_num":25,"trial_length":5,"click_num":5,"RT":1112.1000000000931,"action":0,"reward":3.7},{"phase":"TASK","trial_num":26,"trial_length":5,"click_num":1,"RT":2047.6000000000931,"action":1,"reward":3.7},{"phase":"TASK","trial_num":26,"trial_length":5,"click_num":2,"RT":1616,"action":1,"reward":2.4},{"phase":"TASK","trial_num":26,"trial_length":5,"click_num":3,"RT":1760.1000000000931,"action":1,"reward":2.6},{"phase":"TASK","trial_num":26,"trial_length":5,"click_num":4,"RT":3111.899999999907,"action":0,"reward":3.7},{"phase":"TASK","trial_num":26,"trial_length":5,"click_num":5,"RT":1200,"action":0,"reward":3.7},{"phase":"TASK","trial_num":27,"trial_length":10,"click_num":1,"RT":1551.6000000000931,"action":1,"reward":3},{"phase":"TASK","trial_num":27,"trial_length":10,"click_num":2,"RT":2008.1000000000931,"action":1,"reward":2.9},{"phase":"TASK","trial_num":27,"trial_length":10,"click_num":3,"RT":2136.100000000093,"action":1,"reward":2},{"phase":"TASK","trial_num":27,"trial_length":10,"click_num":4,"RT":1919.7999999998137,"action":1,"reward":3.7},{"phase":"TASK","trial_num":27,"trial_length":10,"click_num":5,"RT":1472.1000000000931,"action":1,"reward":3.5},{"phase":"TASK","trial_num":27,"trial_length":10,"click_num":6,"RT":1351.8999999999069,"action":1,"reward":2.1},{"phase":"TASK","trial_num":27,"trial_length":10,"click_num":7,"RT":1864,"action":0,"reward":3.7},{"phase":"TASK","trial_num":27,"trial_length":10,"click_num":8,"RT":1272.8999999999069,"action":1,"reward":3.9},{"phase":"TASK","trial_num":27,"trial_length":10,"click_num":9,"RT":1807.2000000001863,"action":0,"reward":3.9},{"phase":"TASK","trial_num":27,"trial_length":10,"click_num":10,"RT":1463.8999999999069,"action":0,"reward":3.9},{"phase":"TASK","trial_num":28,"trial_length":8,"click_num":1,"RT":1935.8999999999069,"action":1,"reward":2.8},{"phase":"TASK","trial_num":28,"trial_length":8,"click_num":2,"RT":1447.8000000002794,"action":1,"reward":2.6},{"phase":"TASK","trial_num":28,"trial_length":8,"click_num":3,"RT":1279.7999999998137,"action":1,"reward":3.6},{"phase":"TASK","trial_num":28,"trial_length":8,"click_num":4,"RT":2992,"action":1,"reward":3.3},{"phase":"TASK","trial_num":28,"trial_length":8,"click_num":5,"RT":1344.2000000001863,"action":1,"reward":3.4},{"phase":"TASK","trial_num":28,"trial_length":8,"click_num":6,"RT":2015.8999999999069,"action":1,"reward":3.8},{"phase":"TASK","trial_num":28,"trial_length":8,"click_num":7,"RT":1584,"action":0,"reward":3.8},{"phase":"TASK","trial_num":28,"trial_length":8,"click_num":8,"RT":1032,"action":0,"reward":3.8},{"phase":"TASK","trial_num":29,"trial_length":6,"click_num":1,"RT":1543.7999999998137,"action":1,"reward":3},{"phase":"TASK","trial_num":29,"trial_length":6,"click_num":2,"RT":2480.100000000093,"action":1,"reward":3.2},{"phase":"TASK","trial_num":29,"trial_length":6,"click_num":3,"RT":1456,"action":1,"reward":3.1},{"phase":"TASK","trial_num":29,"trial_length":6,"click_num":4,"RT":1240,"action":1,"reward":2.8},{"phase":"TASK","trial_num":29,"trial_length":6,"click_num":5,"RT":1839.7999999998137,"action":1,"reward":3.3},{"phase":"TASK","trial_num":29,"trial_length":6,"click_num":6,"RT":1664.2000000001863,"action":0,"reward":3.3},{"phase":"TASK","trial_num":30,"trial_length":8,"click_num":1,"RT":1800,"action":1,"reward":1.4},{"phase":"TASK","trial_num":30,"trial_length":8,"click_num":2,"RT":2967.7999999998137,"action":1,"reward":3},{"phase":"TASK","trial_num":30,"trial_length":8,"click_num":3,"RT":2175.899999999907,"action":1,"reward":1.6},{"phase":"TASK","trial_num":30,"trial_length":8,"click_num":4,"RT":2960,"action":1,"reward":2},{"phase":"TASK","trial_num":30,"trial_length":8,"click_num":5,"RT":2463.899999999907,"action":1,"reward":2.7},{"phase":"TASK","trial_num":30,"trial_length":8,"click_num":6,"RT":1544.1000000000931,"action":1,"reward":2},{"phase":"TASK","trial_num":30,"trial_length":8,"click_num":7,"RT":1640.1000000000931,"action":0,"reward":3},{"phase":"TASK","trial_num":30,"trial_length":8,"click_num":8,"RT":1312,"action":0,"reward":3},{"phase":"TASK","trial_num":31,"trial_length":5,"click_num":1,"RT":1775.5,"action":1,"reward":3.4},{"phase":"TASK","trial_num":31,"trial_length":5,"click_num":2,"RT":1592.3000000002794,"action":1,"reward":3.1},{"phase":"TASK","trial_num":31,"trial_length":5,"click_num":3,"RT":1271.5999999996275,"action":1,"reward":3},{"phase":"TASK","trial_num":31,"trial_length":5,"click_num":4,"RT":1344.8000000002794,"action":1,"reward":3.4},{"phase":"TASK","trial_num":31,"trial_length":5,"click_num":5,"RT":1655.3999999999069,"action":0,"reward":3.4},{"phase":"TASK","trial_num":32,"trial_length":10,"click_num":1,"RT":2904.0999999996275,"action":1,"reward":3},{"phase":"TASK","trial_num":32,"trial_length":10,"click_num":2,"RT":1327.6000000000931,"action":1,"reward":3.3},{"phase":"TASK","trial_num":32,"trial_length":10,"click_num":3,"RT":1296,"action":1,"reward":3.2},{"phase":"TASK","trial_num":32,"trial_length":10,"click_num":4,"RT":1336.1000000000931,"action":1,"reward":2},{"phase":"TASK","trial_num":32,"trial_length":10,"click_num":5,"RT":1864,"action":1,"reward":2.9},{"phase":"TASK","trial_num":32,"trial_length":10,"click_num":6,"RT":1327.8999999999069,"action":1,"reward":2.8},{"phase":"TASK","trial_num":32,"trial_length":10,"click_num":7,"RT":1216,"action":1,"reward":1.9},{"phase":"TASK","trial_num":32,"trial_length":10,"click_num":8,"RT":2656.100000000093,"action":1,"reward":3.2},{"phase":"TASK","trial_num":32,"trial_length":10,"click_num":9,"RT":1615.8999999999069,"action":1,"reward":2.5},{"phase":"TASK","trial_num":32,"trial_length":10,"click_num":10,"RT":1432,"action":0,"reward":3.3},{"phase":"TASK","trial_num":33,"trial_length":5,"click_num":1,"RT":2167.5999999996275,"action":1,"reward":4},{"phase":"TASK","trial_num":33,"trial_length":5,"click_num":2,"RT":1496,"action":1,"reward":3.1},{"phase":"TASK","trial_num":33,"trial_length":5,"click_num":3,"RT":1200.1000000000931,"action":1,"reward":1.7},{"phase":"TASK","trial_num":33,"trial_length":5,"click_num":4,"RT":1232.1000000000931,"action":0,"reward":4},{"phase":"TASK","trial_num":33,"trial_length":5,"click_num":5,"RT":976.1000000000931,"action":0,"reward":4},{"phase":"TASK","trial_num":34,"trial_length":5,"click_num":1,"RT":1719.7000000001863,"action":1,"reward":2.6},{"phase":"TASK","trial_num":34,"trial_length":5,"click_num":2,"RT":1400,"action":1,"reward":2.7},{"phase":"TASK","trial_num":34,"trial_length":5,"click_num":3,"RT":1215.8999999999069,"action":1,"reward":2.5},{"phase":"TASK","trial_num":34,"trial_length":5,"click_num":4,"RT":1248.1000000000931,"action":1,"reward":3.3},{"phase":"TASK","trial_num":34,"trial_length":5,"click_num":5,"RT":2063.899999999907,"action":0,"reward":3.3},{"phase":"TASK","trial_num":35,"trial_length":7,"click_num":1,"RT":1447.7000000001863,"action":1,"reward":3.5},{"phase":"TASK","trial_num":35,"trial_length":7,"click_num":2,"RT":1631.8999999999069,"action":1,"reward":2.8},{"phase":"TASK","trial_num":35,"trial_length":7,"click_num":3,"RT":1144,"action":1,"reward":2.5},{"phase":"TASK","trial_num":35,"trial_length":7,"click_num":4,"RT":1279.8999999999069,"action":1,"reward":2.7},{"phase":"TASK","trial_num":35,"trial_length":7,"click_num":5,"RT":1312.1000000000931,"action":0,"reward":3.5},{"phase":"TASK","trial_num":35,"trial_length":7,"click_num":6,"RT":1008,"action":0,"reward":3.5},{"phase":"TASK","trial_num":35,"trial_length":7,"click_num":7,"RT":880,"action":1,"reward":3.1},{"phase":"TASK","trial_num":36,"trial_length":7,"click_num":1,"RT":1839.7000000001863,"action":1,"reward":3.6},{"phase":"TASK","trial_num":36,"trial_length":7,"click_num":2,"RT":1400,"action":1,"reward":3.4},{"phase":"TASK","trial_num":36,"trial_length":7,"click_num":3,"RT":1215.8999999999069,"action":1,"reward":2.8},{"phase":"TASK","trial_num":36,"trial_length":7,"click_num":4,"RT":1152,"action":1,"reward":3.2},{"phase":"TASK","trial_num":36,"trial_length":7,"click_num":5,"RT":1256.1000000000931,"action":1,"reward":2.9},{"phase":"TASK","trial_num":36,"trial_length":7,"click_num":6,"RT":1911.7999999998137,"action":0,"reward":3.6},{"phase":"TASK","trial_num":36,"trial_length":7,"click_num":7,"RT":1048.2000000001863,"action":0,"reward":3.6},{"phase":"TASK","trial_num":37,"trial_length":8,"click_num":1,"RT":1287.7999999998137,"action":1,"reward":3.4},{"phase":"TASK","trial_num":37,"trial_length":8,"click_num":2,"RT":1296,"action":1,"reward":3.1},{"phase":"TASK","trial_num":37,"trial_length":8,"click_num":3,"RT":1224,"action":1,"reward":3},{"phase":"TASK","trial_num":37,"trial_length":8,"click_num":4,"RT":1240,"action":1,"reward":3.2},{"phase":"TASK","trial_num":37,"trial_length":8,"click_num":5,"RT":1192,"action":1,"reward":3.5},{"phase":"TASK","trial_num":37,"trial_length":8,"click_num":6,"RT":1184,"action":1,"reward":3.9},{"phase":"TASK","trial_num":37,"trial_length":8,"click_num":7,"RT":2544.100000000093,"action":0,"reward":3.9},{"phase":"TASK","trial_num":37,"trial_length":8,"click_num":8,"RT":1079.8999999999069,"action":0,"reward":3.9},{"phase":"TASK","trial_num":38,"trial_length":5,"click_num":1,"RT":1719.7999999998137,"action":1,"reward":2.4},{"phase":"TASK","trial_num":38,"trial_length":5,"click_num":2,"RT":1296.1000000000931,"action":1,"reward":3.1},{"phase":"TASK","trial_num":38,"trial_length":5,"click_num":3,"RT":1351.8999999999069,"action":1,"reward":2.1},{"phase":"TASK","trial_num":38,"trial_length":5,"click_num":4,"RT":1464,"action":1,"reward":2},{"phase":"TASK","trial_num":38,"trial_length":5,"click_num":5,"RT":1975.8999999999069,"action":0,"reward":3.1},{"phase":"TASK","trial_num":39,"trial_length":8,"click_num":1,"RT":1415.8999999999069,"action":1,"reward":1.5},{"phase":"TASK","trial_num":39,"trial_length":8,"click_num":2,"RT":1520.1000000000931,"action":1,"reward":3.1},{"phase":"TASK","trial_num":39,"trial_length":8,"click_num":3,"RT":1215.8999999999069,"action":1,"reward":3.5},{"phase":"TASK","trial_num":39,"trial_length":8,"click_num":4,"RT":1175.8999999999069,"action":1,"reward":2.9},{"phase":"TASK","trial_num":39,"trial_length":8,"click_num":5,"RT":1152.1000000000931,"action":1,"reward":2},{"phase":"TASK","trial_num":39,"trial_length":8,"click_num":6,"RT":1175.7000000001863,"action":1,"reward":2.8},{"phase":"TASK","trial_num":39,"trial_length":8,"click_num":7,"RT":1048.6000000000931,"action":0,"reward":3.5},{"phase":"TASK","trial_num":39,"trial_length":8,"click_num":8,"RT":879.6999999997206,"action":0,"reward":3.5},{"phase":"TASK","trial_num":40,"trial_length":7,"click_num":1,"RT":1743.5,"action":1,"reward":4},{"phase":"TASK","trial_num":40,"trial_length":7,"click_num":2,"RT":1824.1000000000931,"action":1,"reward":2.9},{"phase":"TASK","trial_num":40,"trial_length":7,"click_num":3,"RT":2136,"action":1,"reward":3.3},{"phase":"TASK","trial_num":40,"trial_length":7,"click_num":4,"RT":1752,"action":0,"reward":4},{"phase":"TASK","trial_num":40,"trial_length":7,"click_num":5,"RT":1080,"action":0,"reward":4},{"phase":"TASK","trial_num":40,"trial_length":7,"click_num":6,"RT":895.8999999999069,"action":0,"reward":4},{"phase":"TASK","trial_num":40,"trial_length":7,"click_num":7,"RT":1024.1000000000931,"action":0,"reward":4},{"phase":"TASK","trial_num":41,"trial_length":9,"click_num":1,"RT":1263.7999999998137,"action":1,"reward":3.2},{"phase":"TASK","trial_num":41,"trial_length":9,"click_num":2,"RT":1248,"action":1,"reward":3.6},{"phase":"TASK","trial_num":41,"trial_length":9,"click_num":3,"RT":1224,"action":1,"reward":2.1},{"phase":"TASK","trial_num":41,"trial_length":9,"click_num":4,"RT":1288,"action":1,"reward":1.9},{"phase":"TASK","trial_num":41,"trial_length":9,"click_num":5,"RT":2208.2000000001863,"action":1,"reward":4},{"phase":"TASK","trial_num":41,"trial_length":9,"click_num":6,"RT":1927.7999999998137,"action":0,"reward":4},{"phase":"TASK","trial_num":41,"trial_length":9,"click_num":7,"RT":888,"action":0,"reward":4},{"phase":"TASK","trial_num":41,"trial_length":9,"click_num":8,"RT":920,"action":0,"reward":4},{"phase":"TASK","trial_num":41,"trial_length":9,"click_num":9,"RT":1527.8999999999069,"action":0,"reward":4},{"phase":"TASK","trial_num":42,"trial_length":5,"click_num":1,"RT":1535.6000000000931,"action":1,"reward":3.3},{"phase":"TASK","trial_num":42,"trial_length":5,"click_num":2,"RT":1752,"action":1,"reward":3.1},{"phase":"TASK","trial_num":42,"trial_length":5,"click_num":3,"RT":1272.1000000000931,"action":1,"reward":1.2},{"phase":"TASK","trial_num":42,"trial_length":5,"click_num":4,"RT":2479.899999999907,"action":0,"reward":3.3},{"phase":"TASK","trial_num":42,"trial_length":5,"click_num":5,"RT":984,"action":0,"reward":3.3},{"phase":"TASK","trial_num":43,"trial_length":9,"click_num":1,"RT":1319.7999999998137,"action":1,"reward":2.1},{"phase":"TASK","trial_num":43,"trial_length":9,"click_num":2,"RT":1256,"action":1,"reward":2.6},{"phase":"TASK","trial_num":43,"trial_length":9,"click_num":3,"RT":1160,"action":1,"reward":3.3},{"phase":"TASK","trial_num":43,"trial_length":9,"click_num":4,"RT":2152.100000000093,"action":1,"reward":2.8},{"phase":"TASK","trial_num":43,"trial_length":9,"click_num":5,"RT":1232,"action":1,"reward":3.4},{"phase":"TASK","trial_num":43,"trial_length":9,"click_num":6,"RT":1320,"action":1,"reward":3.2},{"phase":"TASK","trial_num":43,"trial_length":9,"click_num":7,"RT":1272,"action":1,"reward":4.7},{"phase":"TASK","trial_num":43,"trial_length":9,"click_num":8,"RT":1800.1000000000931,"action":0,"reward":4.7},{"phase":"TASK","trial_num":43,"trial_length":9,"click_num":9,"RT":943.8999999999069,"action":0,"reward":4.7},{"phase":"TASK","trial_num":44,"trial_length":10,"click_num":1,"RT":1463.7999999998137,"action":1,"reward":2.6},{"phase":"TASK","trial_num":44,"trial_length":10,"click_num":2,"RT":1192.1000000000931,"action":1,"reward":2.4},{"phase":"TASK","trial_num":44,"trial_length":10,"click_num":3,"RT":1039.8999999999069,"action":1,"reward":4},{"phase":"TASK","trial_num":44,"trial_length":10,"click_num":4,"RT":1295.8999999999069,"action":1,"reward":2.8},{"phase":"TASK","trial_num":44,"trial_length":10,"click_num":5,"RT":1248.2000000001863,"action":1,"reward":2.4},{"phase":"TASK","trial_num":44,"trial_length":10,"click_num":6,"RT":1111.7999999998137,"action":0,"reward":4},{"phase":"TASK","trial_num":44,"trial_length":10,"click_num":7,"RT":968,"action":0,"reward":4},{"phase":"TASK","trial_num":44,"trial_length":10,"click_num":8,"RT":976,"action":0,"reward":4},{"phase":"TASK","trial_num":44,"trial_length":10,"click_num":9,"RT":1248.1000000000931,"action":0,"reward":4},{"phase":"TASK","trial_num":44,"trial_length":10,"click_num":10,"RT":1096,"action":0,"reward":4},{"phase":"TASK","trial_num":45,"trial_length":8,"click_num":1,"RT":1863.6000000000931,"action":1,"reward":2.6},{"phase":"TASK","trial_num":45,"trial_length":8,"click_num":2,"RT":1280.1000000000931,"action":1,"reward":2.6},{"phase":"TASK","trial_num":45,"trial_length":8,"click_num":3,"RT":1352,"action":1,"reward":1.1},{"phase":"TASK","trial_num":45,"trial_length":8,"click_num":4,"RT":1903.8999999999069,"action":1,"reward":3.2},{"phase":"TASK","trial_num":45,"trial_length":8,"click_num":5,"RT":1312,"action":1,"reward":3.3},{"phase":"TASK","trial_num":45,"trial_length":8,"click_num":6,"RT":1184.2000000001863,"action":1,"reward":2.2},{"phase":"TASK","trial_num":45,"trial_length":8,"click_num":7,"RT":1983.7999999998137,"action":0,"reward":3.3},{"phase":"TASK","trial_num":45,"trial_length":8,"click_num":8,"RT":880.1000000000931,"action":0,"reward":3.3},{"phase":"TASK","trial_num":46,"trial_length":10,"click_num":1,"RT":3431.600000000093,"action":1,"reward":3.1},{"phase":"TASK","trial_num":46,"trial_length":10,"click_num":2,"RT":1392,"action":1,"reward":2.1},{"phase":"TASK","trial_num":46,"trial_length":10,"click_num":3,"RT":1256.1000000000931,"action":1,"reward":2.2},{"phase":"TASK","trial_num":46,"trial_length":10,"click_num":4,"RT":1143.8999999999069,"action":1,"reward":2.8},{"phase":"TASK","trial_num":46,"trial_length":10,"click_num":5,"RT":1112.1000000000931,"action":1,"reward":3},{"phase":"TASK","trial_num":46,"trial_length":10,"click_num":6,"RT":1288,"action":1,"reward":3.3},{"phase":"TASK","trial_num":46,"trial_length":10,"click_num":7,"RT":2056,"action":1,"reward":2.9},{"phase":"TASK","trial_num":46,"trial_length":10,"click_num":8,"RT":1304,"action":0,"reward":3.3},{"phase":"TASK","trial_num":46,"trial_length":10,"click_num":9,"RT":1480,"action":0,"reward":3.3},{"phase":"TASK","trial_num":46,"trial_length":10,"click_num":10,"RT":976,"action":0,"reward":3.3},{"phase":"TASK","trial_num":47,"trial_length":9,"click_num":1,"RT":1199.8000000002794,"action":1,"reward":2.1},{"phase":"TASK","trial_num":47,"trial_length":9,"click_num":2,"RT":1199.7999999998137,"action":1,"reward":2.7},{"phase":"TASK","trial_num":47,"trial_length":9,"click_num":3,"RT":1792.1000000000931,"action":1,"reward":2.4},{"phase":"TASK","trial_num":47,"trial_length":9,"click_num":4,"RT":1335.8999999999069,"action":1,"reward":3},{"phase":"TASK","trial_num":47,"trial_length":9,"click_num":5,"RT":1288.1000000000931,"action":1,"reward":2.7},{"phase":"TASK","trial_num":47,"trial_length":9,"click_num":6,"RT":1640.1000000000931,"action":1,"reward":3.1},{"phase":"TASK","trial_num":47,"trial_length":9,"click_num":7,"RT":1215.8999999999069,"action":1,"reward":2.5},{"phase":"TASK","trial_num":47,"trial_length":9,"click_num":8,"RT":1871.8999999999069,"action":0,"reward":3.1},{"phase":"TASK","trial_num":47,"trial_length":9,"click_num":9,"RT":944.1000000000931,"action":0,"reward":3.1},{"phase":"TASK","trial_num":48,"trial_length":5,"click_num":1,"RT":1455.6000000000931,"action":1,"reward":2.7},{"phase":"TASK","trial_num":48,"trial_length":5,"click_num":2,"RT":1096.3000000002794,"action":1,"reward":3.4},{"phase":"TASK","trial_num":48,"trial_length":5,"click_num":3,"RT":1359.6999999997206,"action":1,"reward":3.7},{"phase":"TASK","trial_num":48,"trial_length":5,"click_num":4,"RT":1248,"action":1,"reward":3.1},{"phase":"TASK","trial_num":48,"trial_length":5,"click_num":5,"RT":1352.1000000000931,"action":0,"reward":3.7},{"phase":"TASK","trial_num":49,"trial_length":8,"click_num":1,"RT":1199.7000000001863,"action":1,"reward":1.7},{"phase":"TASK","trial_num":49,"trial_length":8,"click_num":2,"RT":1039.1999999997206,"action":1,"reward":3.3},{"phase":"TASK","trial_num":49,"trial_length":8,"click_num":3,"RT":1216.1000000000931,"action":1,"reward":2.5},{"phase":"TASK","trial_num":49,"trial_length":8,"click_num":4,"RT":1040,"action":1,"reward":2.2},{"phase":"TASK","trial_num":49,"trial_length":8,"click_num":5,"RT":1152,"action":1,"reward":3.1},{"phase":"TASK","trial_num":49,"trial_length":8,"click_num":6,"RT":2392,"action":0,"reward":3.3},{"phase":"TASK","trial_num":49,"trial_length":8,"click_num":7,"RT":896,"action":1,"reward":2.2},{"phase":"TASK","trial_num":49,"trial_length":8,"click_num":8,"RT":992.1000000000931,"action":0,"reward":3.3},{"phase":"TASK","trial_num":50,"trial_length":10,"click_num":1,"RT":2151.7000000001863,"action":1,"reward":3.5},{"phase":"TASK","trial_num":50,"trial_length":10,"click_num":2,"RT":1072.8999999999069,"action":1,"reward":2.4},{"phase":"TASK","trial_num":50,"trial_length":10,"click_num":3,"RT":1055,"action":1,"reward":2.8},{"phase":"TASK","trial_num":50,"trial_length":10,"click_num":4,"RT":1344.2000000001863,"action":1,"reward":3.5},{"phase":"TASK","trial_num":50,"trial_length":10,"click_num":5,"RT":1543.7999999998137,"action":1,"reward":2.6},{"phase":"TASK","trial_num":50,"trial_length":10,"click_num":6,"RT":2000.2000000001863,"action":0,"reward":3.5},{"phase":"TASK","trial_num":50,"trial_length":10,"click_num":7,"RT":1007.7999999998137,"action":1,"reward":3},{"phase":"TASK","trial_num":50,"trial_length":10,"click_num":8,"RT":4592.100000000093,"action":1,"reward":4.2},{"phase":"TASK","trial_num":50,"trial_length":10,"click_num":9,"RT":1695.8999999999069,"action":0,"reward":4.2},{"phase":"TASK","trial_num":50,"trial_length":10,"click_num":10,"RT":936.2000000001863,"action":0,"reward":4.2},{"phase":"TASK","trial_num":51,"trial_length":8,"click_num":1,"RT":1367.7999999998137,"action":1,"reward":2.6},{"phase":"TASK","trial_num":51,"trial_length":8,"click_num":2,"RT":1928,"action":1,"reward":3.3},{"phase":"TASK","trial_num":51,"trial_length":8,"click_num":3,"RT":2416,"action":1,"reward":2},{"phase":"TASK","trial_num":51,"trial_length":8,"click_num":4,"RT":2208,"action":0,"reward":3.3},{"phase":"TASK","trial_num":51,"trial_length":8,"click_num":5,"RT":1008,"action":1,"reward":2.1},{"phase":"TASK","trial_num":51,"trial_length":8,"click_num":6,"RT":1632,"action":0,"reward":3.3},{"phase":"TASK","trial_num":51,"trial_length":8,"click_num":7,"RT":927.8999999999069,"action":1,"reward":3.7},{"phase":"TASK","trial_num":51,"trial_length":8,"click_num":8,"RT":1808.1000000000931,"action":0,"reward":3.7},{"phase":"TASK","trial_num":52,"trial_length":10,"click_num":1,"RT":1759.7000000001863,"action":1,"reward":3.2},{"phase":"TASK","trial_num":52,"trial_length":10,"click_num":2,"RT":1856,"action":1,"reward":2.5},{"phase":"TASK","trial_num":52,"trial_length":10,"click_num":3,"RT":1831.8999999999069,"action":1,"reward":2.9},{"phase":"TASK","trial_num":52,"trial_length":10,"click_num":4,"RT":1216,"action":1,"reward":2.3},{"phase":"TASK","trial_num":52,"trial_length":10,"click_num":5,"RT":1872.1000000000931,"action":1,"reward":3.4},{"phase":"TASK","trial_num":52,"trial_length":10,"click_num":6,"RT":1279.8999999999069,"action":1,"reward":3.2},{"phase":"TASK","trial_num":52,"trial_length":10,"click_num":7,"RT":2024,"action":0,"reward":3.4},{"phase":"TASK","trial_num":52,"trial_length":10,"click_num":8,"RT":1784.1000000000931,"action":1,"reward":3.3},{"phase":"TASK","trial_num":52,"trial_length":10,"click_num":9,"RT":1584,"action":0,"reward":3.4},{"phase":"TASK","trial_num":52,"trial_length":10,"click_num":10,"RT":927.8999999999069,"action":1,"reward":2.2},{"phase":"TASK","trial_num":53,"trial_length":7,"click_num":1,"RT":3311.7999999998137,"action":1,"reward":3.5},{"phase":"TASK","trial_num":53,"trial_length":7,"click_num":2,"RT":1464,"action":1,"reward":3.1},{"phase":"TASK","trial_num":53,"trial_length":7,"click_num":3,"RT":1288,"action":1,"reward":4.5},{"phase":"TASK","trial_num":53,"trial_length":7,"click_num":4,"RT":1703.8999999999069,"action":0,"reward":4.5},{"phase":"TASK","trial_num":53,"trial_length":7,"click_num":5,"RT":1064.1000000000931,"action":0,"reward":4.5},{"phase":"TASK","trial_num":53,"trial_length":7,"click_num":6,"RT":1064,"action":0,"reward":4.5},{"phase":"TASK","trial_num":53,"trial_length":7,"click_num":7,"RT":1176,"action":0,"reward":4.5},{"phase":"TASK","trial_num":54,"trial_length":9,"click_num":1,"RT":1391.8999999999069,"action":1,"reward":2.5},{"phase":"TASK","trial_num":54,"trial_length":9,"click_num":2,"RT":1215.8999999999069,"action":1,"reward":3.9},{"phase":"TASK","trial_num":54,"trial_length":9,"click_num":3,"RT":1456.1000000000931,"action":1,"reward":2.7},{"phase":"TASK","trial_num":54,"trial_length":9,"click_num":4,"RT":1543.8999999999069,"action":0,"reward":3.9},{"phase":"TASK","trial_num":54,"trial_length":9,"click_num":5,"RT":1080,"action":1,"reward":3.2},{"phase":"TASK","trial_num":54,"trial_length":9,"click_num":6,"RT":1112.2000000001863,"action":0,"reward":3.9},{"phase":"TASK","trial_num":54,"trial_length":9,"click_num":7,"RT":1159.8999999999069,"action":0,"reward":3.9},{"phase":"TASK","trial_num":54,"trial_length":9,"click_num":8,"RT":975.7999999998137,"action":0,"reward":3.9},{"phase":"TASK","trial_num":54,"trial_length":9,"click_num":9,"RT":935.9000000003725,"action":0,"reward":3.9},{"phase":"TASK","trial_num":55,"trial_length":8,"click_num":1,"RT":1535.5,"action":1,"reward":2.2},{"phase":"TASK","trial_num":55,"trial_length":8,"click_num":2,"RT":1103.8999999999069,"action":1,"reward":3.8},{"phase":"TASK","trial_num":55,"trial_length":8,"click_num":3,"RT":1288,"action":1,"reward":3.5},{"phase":"TASK","trial_num":55,"trial_length":8,"click_num":4,"RT":1344,"action":1,"reward":2.5},{"phase":"TASK","trial_num":55,"trial_length":8,"click_num":5,"RT":1384,"action":0,"reward":3.8},{"phase":"TASK","trial_num":55,"trial_length":8,"click_num":6,"RT":848.1000000000931,"action":0,"reward":3.8},{"phase":"TASK","trial_num":55,"trial_length":8,"click_num":7,"RT":839.7999999998137,"action":0,"reward":3.8},{"phase":"TASK","trial_num":55,"trial_length":8,"click_num":8,"RT":1064.1000000000931,"action":0,"reward":3.8},{"phase":"TASK","trial_num":56,"trial_length":8,"click_num":1,"RT":1223.6999999997206,"action":1,"reward":2.5},{"phase":"TASK","trial_num":56,"trial_length":8,"click_num":2,"RT":1200.1000000000931,"action":1,"reward":2.9},{"phase":"TASK","trial_num":56,"trial_length":8,"click_num":3,"RT":1391.8999999999069,"action":1,"reward":2.7},{"phase":"TASK","trial_num":56,"trial_length":8,"click_num":4,"RT":1456.1000000000931,"action":1,"reward":2.7},{"phase":"TASK","trial_num":56,"trial_length":8,"click_num":5,"RT":2415.899999999907,"action":1,"reward":2.9},{"phase":"TASK","trial_num":56,"trial_length":8,"click_num":6,"RT":1424.6000000000931,"action":1,"reward":3.5},{"phase":"TASK","trial_num":56,"trial_length":8,"click_num":7,"RT":1311.3999999999069,"action":0,"reward":3.5},{"phase":"TASK","trial_num":56,"trial_length":8,"click_num":8,"RT":808.7000000001863,"action":0,"reward":3.5},{"phase":"TASK","trial_num":57,"trial_length":10,"click_num":1,"RT":11727.69999999972,"action":1,"reward":3.3},{"phase":"TASK","trial_num":57,"trial_length":10,"click_num":2,"RT":2760.2000000001863,"action":1,"reward":3},{"phase":"TASK","trial_num":57,"trial_length":10,"click_num":3,"RT":1096,"action":1,"reward":3.3},{"phase":"TASK","trial_num":57,"trial_length":10,"click_num":4,"RT":1215.8999999999069,"action":1,"reward":3},{"phase":"TASK","trial_num":57,"trial_length":10,"click_num":5,"RT":1159.8999999999069,"action":1,"reward":3},{"phase":"TASK","trial_num":57,"trial_length":10,"click_num":6,"RT":1112.2000000001863,"action":1,"reward":2.4},{"phase":"TASK","trial_num":57,"trial_length":10,"click_num":7,"RT":1440,"action":0,"reward":3.3},{"phase":"TASK","trial_num":57,"trial_length":10,"click_num":8,"RT":1311.8999999999069,"action":1,"reward":1.6},{"phase":"TASK","trial_num":57,"trial_length":10,"click_num":9,"RT":1664,"action":0,"reward":3.3},{"phase":"TASK","trial_num":57,"trial_length":10,"click_num":10,"RT":1088,"action":0,"reward":3.3},{"phase":"TASK","trial_num":58,"trial_length":10,"click_num":1,"RT":1951.8999999999069,"action":1,"reward":3.5},{"phase":"TASK","trial_num":58,"trial_length":10,"click_num":2,"RT":1200,"action":1,"reward":3.2},{"phase":"TASK","trial_num":58,"trial_length":10,"click_num":3,"RT":1112.1000000000931,"action":1,"reward":4.3},{"phase":"TASK","trial_num":58,"trial_length":10,"click_num":4,"RT":1535.8999999999069,"action":1,"reward":4.4},{"phase":"TASK","trial_num":58,"trial_length":10,"click_num":5,"RT":1240,"action":1,"reward":4.2},{"phase":"TASK","trial_num":58,"trial_length":10,"click_num":6,"RT":2855.899999999907,"action":0,"reward":4.4},{"phase":"TASK","trial_num":58,"trial_length":10,"click_num":7,"RT":976.1000000000931,"action":0,"reward":4.4},{"phase":"TASK","trial_num":58,"trial_length":10,"click_num":8,"RT":1976,"action":1,"reward":3.3},{"phase":"TASK","trial_num":58,"trial_length":10,"click_num":9,"RT":1159.8999999999069,"action":0,"reward":4.4},{"phase":"TASK","trial_num":58,"trial_length":10,"click_num":10,"RT":1016,"action":0,"reward":4.4},{"phase":"TASK","trial_num":59,"trial_length":9,"click_num":1,"RT":1311.7999999998137,"action":1,"reward":2.6},{"phase":"TASK","trial_num":59,"trial_length":9,"click_num":2,"RT":1288,"action":1,"reward":3.3},{"phase":"TASK","trial_num":59,"trial_length":9,"click_num":3,"RT":1208,"action":1,"reward":3.7},{"phase":"TASK","trial_num":59,"trial_length":9,"click_num":4,"RT":1256,"action":1,"reward":3.7},{"phase":"TASK","trial_num":59,"trial_length":9,"click_num":5,"RT":1440,"action":1,"reward":2.5},{"phase":"TASK","trial_num":59,"trial_length":9,"click_num":6,"RT":1496,"action":0,"reward":3.7},{"phase":"TASK","trial_num":59,"trial_length":9,"click_num":7,"RT":2016,"action":0,"reward":3.7},{"phase":"TASK","trial_num":59,"trial_length":9,"click_num":8,"RT":928,"action":0,"reward":3.7},{"phase":"TASK","trial_num":59,"trial_length":9,"click_num":9,"RT":968.5,"action":0,"reward":3.7},{"phase":"TASK","trial_num":60,"trial_length":9,"click_num":1,"RT":1327.7000000001863,"action":1,"reward":2.3},{"phase":"TASK","trial_num":60,"trial_length":9,"click_num":2,"RT":1264,"action":1,"reward":2.5},{"phase":"TASK","trial_num":60,"trial_length":9,"click_num":3,"RT":1216,"action":1,"reward":3.6},{"phase":"TASK","trial_num":60,"trial_length":9,"click_num":4,"RT":1288.1000000000931,"action":1,"reward":2.7},{"phase":"TASK","trial_num":60,"trial_length":9,"click_num":5,"RT":1247.8999999999069,"action":1,"reward":3.1},{"phase":"TASK","trial_num":60,"trial_length":9,"click_num":6,"RT":2536.100000000093,"action":1,"reward":2.1},{"phase":"TASK","trial_num":60,"trial_length":9,"click_num":7,"RT":1167.8999999999069,"action":0,"reward":3.6},{"phase":"TASK","trial_num":60,"trial_length":9,"click_num":8,"RT":920.1000000000931,"action":0,"reward":3.6},{"phase":"TASK","trial_num":60,"trial_length":9,"click_num":9,"RT":975.7999999998137,"action":0,"reward":3.6},{"phase":"TASK","trial_num":61,"trial_length":10,"click_num":1,"RT":1391.5,"action":1,"reward":3.5},{"phase":"TASK","trial_num":61,"trial_length":10,"click_num":2,"RT":1224.1000000000931,"action":1,"reward":3.4},{"phase":"TASK","trial_num":61,"trial_length":10,"click_num":3,"RT":1104.1000000000931,"action":1,"reward":3.8},{"phase":"TASK","trial_num":61,"trial_length":10,"click_num":4,"RT":1184,"action":1,"reward":3.2},{"phase":"TASK","trial_num":61,"trial_length":10,"click_num":5,"RT":1103.8999999999069,"action":1,"reward":3.7},{"phase":"TASK","trial_num":61,"trial_length":10,"click_num":6,"RT":1199.8999999999069,"action":1,"reward":2.9},{"phase":"TASK","trial_num":61,"trial_length":10,"click_num":7,"RT":1920.1000000000931,"action":1,"reward":3.1},{"phase":"TASK","trial_num":61,"trial_length":10,"click_num":8,"RT":1000,"action":0,"reward":3.8},{"phase":"TASK","trial_num":61,"trial_length":10,"click_num":9,"RT":928,"action":0,"reward":3.8},{"phase":"TASK","trial_num":61,"trial_length":10,"click_num":10,"RT":864.1000000000931,"action":0,"reward":3.8},{"phase":"TASK","trial_num":62,"trial_length":7,"click_num":1,"RT":1335.7000000001863,"action":1,"reward":3.2},{"phase":"TASK","trial_num":62,"trial_length":7,"click_num":2,"RT":1007.8999999999069,"action":1,"reward":3.5},{"phase":"TASK","trial_num":62,"trial_length":7,"click_num":3,"RT":1143.8999999999069,"action":1,"reward":3},{"phase":"TASK","trial_num":62,"trial_length":7,"click_num":4,"RT":1000.2000000001863,"action":1,"reward":2.6},{"phase":"TASK","trial_num":62,"trial_length":7,"click_num":5,"RT":2655.7999999998137,"action":0,"reward":3.5},{"phase":"TASK","trial_num":62,"trial_length":7,"click_num":6,"RT":1656,"action":0,"reward":3.5},{"phase":"TASK","trial_num":62,"trial_length":7,"click_num":7,"RT":920.1000000000931,"action":0,"reward":3.5},{"phase":"TASK","trial_num":63,"trial_length":9,"click_num":1,"RT":1616,"action":1,"reward":3.3},{"phase":"TASK","trial_num":63,"trial_length":9,"click_num":2,"RT":1272.1000000000931,"action":1,"reward":2.5},{"phase":"TASK","trial_num":63,"trial_length":9,"click_num":3,"RT":991.8999999999069,"action":1,"reward":2.8},{"phase":"TASK","trial_num":63,"trial_length":9,"click_num":4,"RT":1215.8999999999069,"action":1,"reward":4.9},{"phase":"TASK","trial_num":63,"trial_length":9,"click_num":5,"RT":1648,"action":0,"reward":4.9},{"phase":"TASK","trial_num":63,"trial_length":9,"click_num":6,"RT":919.8999999999069,"action":0,"reward":4.9},{"phase":"TASK","trial_num":63,"trial_length":9,"click_num":7,"RT":912.1000000000931,"action":0,"reward":4.9},{"phase":"TASK","trial_num":63,"trial_length":9,"click_num":8,"RT":1232,"action":0,"reward":4.9},{"phase":"TASK","trial_num":63,"trial_length":9,"click_num":9,"RT":1000,"action":0,"reward":4.9},{"phase":"TASK","trial_num":64,"trial_length":6,"click_num":1,"RT":1208,"action":1,"reward":1.8},{"phase":"TASK","trial_num":64,"trial_length":6,"click_num":2,"RT":1159.3999999999069,"action":1,"reward":4.2},{"phase":"TASK","trial_num":64,"trial_length":6,"click_num":3,"RT":1512.1000000000931,"action":0,"reward":4.2},{"phase":"TASK","trial_num":64,"trial_length":6,"click_num":4,"RT":871.8999999999069,"action":0,"reward":4.2},{"phase":"TASK","trial_num":64,"trial_length":6,"click_num":5,"RT":1096.2000000001863,"action":0,"reward":4.2},{"phase":"TASK","trial_num":64,"trial_length":6,"click_num":6,"RT":935.8999999999069,"action":0,"reward":4.2},{"phase":"TASK","trial_num":65,"trial_length":10,"click_num":1,"RT":1303.8999999999069,"action":1,"reward":2.3},{"phase":"TASK","trial_num":65,"trial_length":10,"click_num":2,"RT":1168,"action":1,"reward":3.3},{"phase":"TASK","trial_num":65,"trial_length":10,"click_num":3,"RT":1335.8999999999069,"action":1,"reward":2.7},{"phase":"TASK","trial_num":65,"trial_length":10,"click_num":4,"RT":1312.1000000000931,"action":1,"reward":3.2},{"phase":"TASK","trial_num":65,"trial_length":10,"click_num":5,"RT":1063.8999999999069,"action":1,"reward":3.6},{"phase":"TASK","trial_num":65,"trial_length":10,"click_num":6,"RT":1568.2000000001863,"action":1,"reward":2.7},{"phase":"TASK","trial_num":65,"trial_length":10,"click_num":7,"RT":1207.7999999998137,"action":1,"reward":3},{"phase":"TASK","trial_num":65,"trial_length":10,"click_num":8,"RT":1224.1000000000931,"action":1,"reward":2.7},{"phase":"TASK","trial_num":65,"trial_length":10,"click_num":9,"RT":1743.7999999998137,"action":0,"reward":3.6},{"phase":"TASK","trial_num":65,"trial_length":10,"click_num":10,"RT":984.2000000001863,"action":0,"reward":3.6},{"phase":"TASK","trial_num":66,"trial_length":6,"click_num":1,"RT":1399.6999999997206,"action":1,"reward":3.4},{"phase":"TASK","trial_num":66,"trial_length":6,"click_num":2,"RT":1080,"action":1,"reward":2.4},{"phase":"TASK","trial_num":66,"trial_length":6,"click_num":3,"RT":1104.1000000000931,"action":1,"reward":3.2},{"phase":"TASK","trial_num":66,"trial_length":6,"click_num":4,"RT":1464,"action":1,"reward":3.5},{"phase":"TASK","trial_num":66,"trial_length":6,"click_num":5,"RT":1639.8999999999069,"action":0,"reward":3.5},{"phase":"TASK","trial_num":66,"trial_length":6,"click_num":6,"RT":976.1000000000931,"action":0,"reward":3.5},{"phase":"TASK","trial_num":67,"trial_length":5,"click_num":1,"RT":1183.7999999998137,"action":1,"reward":3.2},{"phase":"TASK","trial_num":67,"trial_length":5,"click_num":2,"RT":1800.1000000000931,"action":1,"reward":3.5},{"phase":"TASK","trial_num":67,"trial_length":5,"click_num":3,"RT":1367.8999999999069,"action":1,"reward":2.7},{"phase":"TASK","trial_num":67,"trial_length":5,"click_num":4,"RT":1240.2000000001863,"action":0,"reward":3.5},{"phase":"TASK","trial_num":67,"trial_length":5,"click_num":5,"RT":967.7999999998137,"action":0,"reward":3.5},{"phase":"TASK","trial_num":68,"trial_length":8,"click_num":1,"RT":1567.6999999997206,"action":1,"reward":3.4},{"phase":"TASK","trial_num":68,"trial_length":8,"click_num":2,"RT":1504.1000000000931,"action":1,"reward":4.8},{"phase":"TASK","trial_num":68,"trial_length":8,"click_num":3,"RT":1607.8999999999069,"action":0,"reward":4.8},{"phase":"TASK","trial_num":68,"trial_length":8,"click_num":4,"RT":968,"action":0,"reward":4.8},{"phase":"TASK","trial_num":68,"trial_length":8,"click_num":5,"RT":960,"action":0,"reward":4.8},{"phase":"TASK","trial_num":68,"trial_length":8,"click_num":6,"RT":912,"action":0,"reward":4.8},{"phase":"TASK","trial_num":68,"trial_length":8,"click_num":7,"RT":1000.1000000000931,"action":0,"reward":4.8},{"phase":"TASK","trial_num":68,"trial_length":8,"click_num":8,"RT":911.8999999999069,"action":0,"reward":4.8},{"phase":"TASK","trial_num":69,"trial_length":7,"click_num":1,"RT":3863.899999999907,"action":1,"reward":2.7},{"phase":"TASK","trial_num":69,"trial_length":7,"click_num":2,"RT":1279.7999999998137,"action":1,"reward":3.8},{"phase":"TASK","trial_num":69,"trial_length":7,"click_num":3,"RT":1600.1000000000931,"action":1,"reward":3.3},{"phase":"TASK","trial_num":69,"trial_length":7,"click_num":4,"RT":1527.8999999999069,"action":0,"reward":3.8},{"phase":"TASK","trial_num":69,"trial_length":7,"click_num":5,"RT":912,"action":1,"reward":2.9},{"phase":"TASK","trial_num":69,"trial_length":7,"click_num":6,"RT":1120.1000000000931,"action":0,"reward":3.8},{"phase":"TASK","trial_num":69,"trial_length":7,"click_num":7,"RT":992,"action":0,"reward":3.8},{"phase":"TASK","trial_num":70,"trial_length":10,"click_num":1,"RT":1351.6000000000931,"action":1,"reward":2.9},{"phase":"TASK","trial_num":70,"trial_length":10,"click_num":2,"RT":1239.8999999999069,"action":1,"reward":2.8},{"phase":"TASK","trial_num":70,"trial_length":10,"click_num":3,"RT":1080,"action":1,"reward":3.1},{"phase":"TASK","trial_num":70,"trial_length":10,"click_num":4,"RT":1176.1000000000931,"action":1,"reward":2.4},{"phase":"TASK","trial_num":70,"trial_length":10,"click_num":5,"RT":1272,"action":1,"reward":2.9},{"phase":"TASK","trial_num":70,"trial_length":10,"click_num":6,"RT":1183.8999999999069,"action":1,"reward":3.8},{"phase":"TASK","trial_num":70,"trial_length":10,"click_num":7,"RT":1392,"action":0,"reward":3.8},{"phase":"TASK","trial_num":70,"trial_length":10,"click_num":8,"RT":912,"action":0,"reward":3.8},{"phase":"TASK","trial_num":70,"trial_length":10,"click_num":9,"RT":936,"action":0,"reward":3.8},{"phase":"TASK","trial_num":70,"trial_length":10,"click_num":10,"RT":1120.1000000000931,"action":0,"reward":3.8},{"phase":"TASK","trial_num":71,"trial_length":5,"click_num":1,"RT":1087.8999999999069,"action":1,"reward":2.6},{"phase":"TASK","trial_num":71,"trial_length":5,"click_num":2,"RT":1119.8999999999069,"action":1,"reward":3.1},{"phase":"TASK","trial_num":71,"trial_length":5,"click_num":3,"RT":1744.1000000000931,"action":1,"reward":3.3},{"phase":"TASK","trial_num":71,"trial_length":5,"click_num":4,"RT":2591.899999999907,"action":0,"reward":3.3},{"phase":"TASK","trial_num":71,"trial_length":5,"click_num":5,"RT":2640,"action":0,"reward":3.3},{"phase":"TASK","trial_num":72,"trial_length":7,"click_num":1,"RT":1119.7999999998137,"action":1,"reward":2.8},{"phase":"TASK","trial_num":72,"trial_length":7,"click_num":2,"RT":1280.1000000000931,"action":1,"reward":3.1},{"phase":"TASK","trial_num":72,"trial_length":7,"click_num":3,"RT":1135.8999999999069,"action":1,"reward":2.8},{"phase":"TASK","trial_num":72,"trial_length":7,"click_num":4,"RT":1168.2000000001863,"action":1,"reward":2.6},{"phase":"TASK","trial_num":72,"trial_length":7,"click_num":5,"RT":2367.899999999907,"action":1,"reward":3.5},{"phase":"TASK","trial_num":72,"trial_length":7,"click_num":6,"RT":1168.1000000000931,"action":0,"reward":3.5},{"phase":"TASK","trial_num":72,"trial_length":7,"click_num":7,"RT":935.8999999999069,"action":0,"reward":3.5},{"phase":"TASK","trial_num":73,"trial_length":7,"click_num":1,"RT":1191.8999999999069,"action":1,"reward":3.2},{"phase":"TASK","trial_num":73,"trial_length":7,"click_num":2,"RT":1151.7999999998137,"action":1,"reward":3.1},{"phase":"TASK","trial_num":73,"trial_length":7,"click_num":3,"RT":1304.2000000001863,"action":1,"reward":2.5},{"phase":"TASK","trial_num":73,"trial_length":7,"click_num":4,"RT":1511.8999999999069,"action":1,"reward":4.1},{"phase":"TASK","trial_num":73,"trial_length":7,"click_num":5,"RT":1712,"action":0,"reward":4.1},{"phase":"TASK","trial_num":73,"trial_length":7,"click_num":6,"RT":912,"action":0,"reward":4.1},{"phase":"TASK","trial_num":73,"trial_length":7,"click_num":7,"RT":1000.1000000000931,"action":0,"reward":4.1},{"phase":"TASK","trial_num":74,"trial_length":8,"click_num":1,"RT":1175.7999999998137,"action":1,"reward":2.8},{"phase":"TASK","trial_num":74,"trial_length":8,"click_num":2,"RT":1160,"action":1,"reward":2.6},{"phase":"TASK","trial_num":74,"trial_length":8,"click_num":3,"RT":1311.8999999999069,"action":1,"reward":2.6},{"phase":"TASK","trial_num":74,"trial_length":8,"click_num":4,"RT":1728.1000000000931,"action":1,"reward":2.4},{"phase":"TASK","trial_num":74,"trial_length":8,"click_num":5,"RT":1168,"action":1,"reward":3.2},{"phase":"TASK","trial_num":74,"trial_length":8,"click_num":6,"RT":1448,"action":1,"reward":3.3},{"phase":"TASK","trial_num":74,"trial_length":8,"click_num":7,"RT":1312,"action":0,"reward":3.3},{"phase":"TASK","trial_num":74,"trial_length":8,"click_num":8,"RT":863.8999999999069,"action":0,"reward":3.3},{"phase":"TASK","trial_num":75,"trial_length":5,"click_num":1,"RT":1767.8999999999069,"action":1,"reward":2.6},{"phase":"TASK","trial_num":75,"trial_length":5,"click_num":2,"RT":1375.8999999999069,"action":1,"reward":3.9},{"phase":"TASK","trial_num":75,"trial_length":5,"click_num":3,"RT":1760.1000000000931,"action":1,"reward":3.1},{"phase":"TASK","trial_num":75,"trial_length":5,"click_num":4,"RT":1711.8999999999069,"action":1,"reward":2.9},{"phase":"TASK","trial_num":75,"trial_length":5,"click_num":5,"RT":3368.100000000093,"action":0,"reward":3.9},{"phase":"TASK","trial_num":76,"trial_length":7,"click_num":1,"RT":1327.5,"action":1,"reward":1.4},{"phase":"TASK","trial_num":76,"trial_length":7,"click_num":2,"RT":1096,"action":1,"reward":2.6},{"phase":"TASK","trial_num":76,"trial_length":7,"click_num":3,"RT":1232.2000000001863,"action":1,"reward":2.1},{"phase":"TASK","trial_num":76,"trial_length":7,"click_num":4,"RT":1095.7999999998137,"action":1,"reward":3.9},{"phase":"TASK","trial_num":76,"trial_length":7,"click_num":5,"RT":1288,"action":0,"reward":3.9},{"phase":"TASK","trial_num":76,"trial_length":7,"click_num":6,"RT":904,"action":0,"reward":3.9},{"phase":"TASK","trial_num":76,"trial_length":7,"click_num":7,"RT":872,"action":0,"reward":3.9},{"phase":"TASK","trial_num":77,"trial_length":6,"click_num":1,"RT":1071.7999999998137,"action":1,"reward":2.2},{"phase":"TASK","trial_num":77,"trial_length":6,"click_num":2,"RT":1144,"action":1,"reward":3.7},{"phase":"TASK","trial_num":77,"trial_length":6,"click_num":3,"RT":3224,"action":0,"reward":3.7},{"phase":"TASK","trial_num":77,"trial_length":6,"click_num":4,"RT":1080.2000000001863,"action":0,"reward":3.7},{"phase":"TASK","trial_num":77,"trial_length":6,"click_num":5,"RT":839.7999999998137,"action":0,"reward":3.7},{"phase":"TASK","trial_num":77,"trial_length":6,"click_num":6,"RT":912,"action":0,"reward":3.7},{"phase":"TASK","trial_num":78,"trial_length":6,"click_num":1,"RT":1391.7999999998137,"action":1,"reward":3},{"phase":"TASK","trial_num":78,"trial_length":6,"click_num":2,"RT":1256,"action":1,"reward":2.9},{"phase":"TASK","trial_num":78,"trial_length":6,"click_num":3,"RT":1208,"action":1,"reward":3},{"phase":"TASK","trial_num":78,"trial_length":6,"click_num":4,"RT":1304,"action":1,"reward":3.1},{"phase":"TASK","trial_num":78,"trial_length":6,"click_num":5,"RT":1535.8999999999069,"action":1,"reward":3.7},{"phase":"TASK","trial_num":78,"trial_length":6,"click_num":6,"RT":1256.1000000000931,"action":0,"reward":3.7},{"phase":"TASK","trial_num":79,"trial_length":8,"click_num":1,"RT":3591.7999999998137,"action":1,"reward":3.2},{"phase":"TASK","trial_num":79,"trial_length":8,"click_num":2,"RT":1184,"action":1,"reward":2.4},{"phase":"TASK","trial_num":79,"trial_length":8,"click_num":3,"RT":1128.1000000000931,"action":1,"reward":3.4},{"phase":"TASK","trial_num":79,"trial_length":8,"click_num":4,"RT":1192,"action":1,"reward":2.2},{"phase":"TASK","trial_num":79,"trial_length":8,"click_num":5,"RT":4888,"action":1,"reward":2.5},{"phase":"TASK","trial_num":79,"trial_length":8,"click_num":6,"RT":1271.8999999999069,"action":1,"reward":2.6},{"phase":"TASK","trial_num":79,"trial_length":8,"click_num":7,"RT":2920.100000000093,"action":0,"reward":3.4},{"phase":"TASK","trial_num":79,"trial_length":8,"click_num":8,"RT":2960.600000000093,"action":0,"reward":3.4},{"phase":"TASK","trial_num":80,"trial_length":10,"click_num":1,"RT":1159.5,"action":1,"reward":2.7},{"phase":"TASK","trial_num":80,"trial_length":10,"click_num":2,"RT":1688.3000000002794,"action":1,"reward":1.7},{"phase":"TASK","trial_num":80,"trial_length":10,"click_num":3,"RT":1031.8999999999069,"action":1,"reward":2.7},{"phase":"TASK","trial_num":80,"trial_length":10,"click_num":4,"RT":1184.1000000000931,"action":1,"reward":2.9},{"phase":"TASK","trial_num":80,"trial_length":10,"click_num":5,"RT":1303.8999999999069,"action":1,"reward":2},{"phase":"TASK","trial_num":80,"trial_length":10,"click_num":6,"RT":1240,"action":1,"reward":1.8},{"phase":"TASK","trial_num":80,"trial_length":10,"click_num":7,"RT":1312,"action":1,"reward":3.1},{"phase":"TASK","trial_num":80,"trial_length":10,"click_num":8,"RT":2047.8999999999069,"action":1,"reward":2.9},{"phase":"TASK","trial_num":80,"trial_length":10,"click_num":9,"RT":1520.1000000000931,"action":0,"reward":3.1},{"phase":"TASK","trial_num":80,"trial_length":10,"click_num":10,"RT":919.8999999999069,"action":0,"reward":3.1},{"phase":"TASK","trial_num":81,"trial_length":9,"click_num":1,"RT":1303.6999999997206,"action":1,"reward":3.1},{"phase":"TASK","trial_num":81,"trial_length":9,"click_num":2,"RT":1288,"action":1,"reward":3},{"phase":"TASK","trial_num":81,"trial_length":9,"click_num":3,"RT":1224.1000000000931,"action":1,"reward":2.3},{"phase":"TASK","trial_num":81,"trial_length":9,"click_num":4,"RT":1208,"action":1,"reward":2.9},{"phase":"TASK","trial_num":81,"trial_length":9,"click_num":5,"RT":1184,"action":1,"reward":3.9},{"phase":"TASK","trial_num":81,"trial_length":9,"click_num":6,"RT":1456,"action":0,"reward":3.9},{"phase":"TASK","trial_num":81,"trial_length":9,"click_num":7,"RT":927.8999999999069,"action":0,"reward":3.9},{"phase":"TASK","trial_num":81,"trial_length":9,"click_num":8,"RT":1104.1000000000931,"action":0,"reward":3.9},{"phase":"TASK","trial_num":81,"trial_length":9,"click_num":9,"RT":1023.8999999999069,"action":0,"reward":3.9},{"phase":"TASK","trial_num":82,"trial_length":8,"click_num":1,"RT":1439.7000000001863,"action":1,"reward":2.9},{"phase":"TASK","trial_num":82,"trial_length":8,"click_num":2,"RT":2031.8999999999069,"action":1,"reward":2.2},{"phase":"TASK","trial_num":82,"trial_length":8,"click_num":3,"RT":1840.1000000000931,"action":1,"reward":3.1},{"phase":"TASK","trial_num":82,"trial_length":8,"click_num":4,"RT":1464,"action":1,"reward":3.5},{"phase":"TASK","trial_num":82,"trial_length":8,"click_num":5,"RT":2080,"action":1,"reward":3.2},{"phase":"TASK","trial_num":82,"trial_length":8,"click_num":6,"RT":1424,"action":0,"reward":3.5},{"phase":"TASK","trial_num":82,"trial_length":8,"click_num":7,"RT":815.8999999999069,"action":0,"reward":3.5},{"phase":"TASK","trial_num":82,"trial_length":8,"click_num":8,"RT":872.1000000000931,"action":0,"reward":3.5},{"phase":"TASK","trial_num":83,"trial_length":6,"click_num":1,"RT":64192,"action":1,"reward":2.5},{"phase":"TASK","trial_num":83,"trial_length":6,"click_num":2,"RT":1368.7000000001863,"action":1,"reward":2.4},{"phase":"TASK","trial_num":83,"trial_length":6,"click_num":3,"RT":1319.1999999997206,"action":1,"reward":2.9},{"phase":"TASK","trial_num":83,"trial_length":6,"click_num":4,"RT":2696.3000000002794,"action":1,"reward":3},{"phase":"TASK","trial_num":83,"trial_length":6,"click_num":5,"RT":1719.6999999997206,"action":1,"reward":3.7},{"phase":"TASK","trial_num":83,"trial_length":6,"click_num":6,"RT":1264,"action":0,"reward":3.7},{"phase":"TASK","trial_num":84,"trial_length":9,"click_num":1,"RT":1407.5,"action":1,"reward":3.2},{"phase":"TASK","trial_num":84,"trial_length":9,"click_num":2,"RT":1015.8999999999069,"action":1,"reward":3.6},{"phase":"TASK","trial_num":84,"trial_length":9,"click_num":3,"RT":1111.8999999999069,"action":1,"reward":3.4},{"phase":"TASK","trial_num":84,"trial_length":9,"click_num":4,"RT":1112.2000000001863,"action":1,"reward":2.6},{"phase":"TASK","trial_num":84,"trial_length":9,"click_num":5,"RT":1135.8999999999069,"action":1,"reward":3.6},{"phase":"TASK","trial_num":84,"trial_length":9,"click_num":6,"RT":1304,"action":1,"reward":3.1},{"phase":"TASK","trial_num":84,"trial_length":9,"click_num":7,"RT":1216.1000000000931,"action":1,"reward":3.4},{"phase":"TASK","trial_num":84,"trial_length":9,"click_num":8,"RT":1360,"action":0,"reward":3.6},{"phase":"TASK","trial_num":84,"trial_length":9,"click_num":9,"RT":976,"action":0,"reward":3.6},{"phase":"TASK","trial_num":85,"trial_length":7,"click_num":1,"RT":1111.6999999997206,"action":1,"reward":2.1},{"phase":"TASK","trial_num":85,"trial_length":7,"click_num":2,"RT":959.8999999999069,"action":1,"reward":2.5},{"phase":"TASK","trial_num":85,"trial_length":7,"click_num":3,"RT":1224.2000000001863,"action":1,"reward":2.3},{"phase":"TASK","trial_num":85,"trial_length":7,"click_num":4,"RT":1088,"action":1,"reward":3.7},{"phase":"TASK","trial_num":85,"trial_length":7,"click_num":5,"RT":1632,"action":0,"reward":3.7},{"phase":"TASK","trial_num":85,"trial_length":7,"click_num":6,"RT":904,"action":0,"reward":3.7},{"phase":"TASK","trial_num":85,"trial_length":7,"click_num":7,"RT":1063.8999999999069,"action":0,"reward":3.7},{"phase":"TASK","trial_num":86,"trial_length":6,"click_num":1,"RT":1391.7000000001863,"action":1,"reward":2.2},{"phase":"TASK","trial_num":86,"trial_length":6,"click_num":2,"RT":1103.8999999999069,"action":1,"reward":2.7},{"phase":"TASK","trial_num":86,"trial_length":6,"click_num":3,"RT":1016,"action":1,"reward":2.9},{"phase":"TASK","trial_num":86,"trial_length":6,"click_num":4,"RT":1000,"action":1,"reward":2.8},{"phase":"TASK","trial_num":86,"trial_length":6,"click_num":5,"RT":2328.100000000093,"action":1,"reward":2},{"phase":"TASK","trial_num":86,"trial_length":6,"click_num":6,"RT":1232,"action":0,"reward":2.9},{"phase":"TASK","trial_num":87,"trial_length":7,"click_num":1,"RT":1639.1000000000931,"action":1,"reward":2.7},{"phase":"TASK","trial_num":87,"trial_length":7,"click_num":2,"RT":1119.7999999998137,"action":1,"reward":2.4},{"phase":"TASK","trial_num":87,"trial_length":7,"click_num":3,"RT":1120.2000000001863,"action":1,"reward":3.1},{"phase":"TASK","trial_num":87,"trial_length":7,"click_num":4,"RT":975.8999999999069,"action":1,"reward":2.2},{"phase":"TASK","trial_num":87,"trial_length":7,"click_num":5,"RT":920,"action":1,"reward":2.4},{"phase":"TASK","trial_num":87,"trial_length":7,"click_num":6,"RT":1216.1000000000931,"action":0,"reward":3.1},{"phase":"TASK","trial_num":87,"trial_length":7,"click_num":7,"RT":815.8999999999069,"action":0,"reward":3.1},{"phase":"TASK","trial_num":88,"trial_length":8,"click_num":1,"RT":951.7999999998137,"action":1,"reward":4.1},{"phase":"TASK","trial_num":88,"trial_length":8,"click_num":2,"RT":3056.100000000093,"action":0,"reward":4.1},{"phase":"TASK","trial_num":88,"trial_length":8,"click_num":3,"RT":1255.8999999999069,"action":0,"reward":4.1},{"phase":"TASK","trial_num":88,"trial_length":8,"click_num":4,"RT":1000,"action":0,"reward":4.1},{"phase":"TASK","trial_num":88,"trial_length":8,"click_num":5,"RT":888,"action":0,"reward":4.1},{"phase":"TASK","trial_num":88,"trial_length":8,"click_num":6,"RT":1048,"action":0,"reward":4.1},{"phase":"TASK","trial_num":88,"trial_length":8,"click_num":7,"RT":1120,"action":0,"reward":4.1},{"phase":"TASK","trial_num":88,"trial_length":8,"click_num":8,"RT":1056,"action":0,"reward":4.1},{"phase":"TASK","trial_num":89,"trial_length":10,"click_num":1,"RT":1639.7999999998137,"action":1,"reward":4.1},{"phase":"TASK","trial_num":89,"trial_length":10,"click_num":2,"RT":5823.899999999907,"action":1,"reward":3.5},{"phase":"TASK","trial_num":89,"trial_length":10,"click_num":3,"RT":1472,"action":0,"reward":4.1},{"phase":"TASK","trial_num":89,"trial_length":10,"click_num":4,"RT":1872,"action":1,"reward":3.6},{"phase":"TASK","trial_num":89,"trial_length":10,"click_num":5,"RT":1152,"action":0,"reward":4.1},{"phase":"TASK","trial_num":89,"trial_length":10,"click_num":6,"RT":808,"action":0,"reward":4.1},{"phase":"TASK","trial_num":89,"trial_length":10,"click_num":7,"RT":976,"action":0,"reward":4.1},{"phase":"TASK","trial_num":89,"trial_length":10,"click_num":8,"RT":1720,"action":0,"reward":4.1},{"phase":"TASK","trial_num":89,"trial_length":10,"click_num":9,"RT":880,"action":0,"reward":4.1},{"phase":"TASK","trial_num":89,"trial_length":10,"click_num":10,"RT":5200.100000000093,"action":0,"reward":4.1},{"phase":"TASK","trial_num":90,"trial_length":7,"click_num":1,"RT":2503.600000000093,"action":1,"reward":2.9},{"phase":"TASK","trial_num":90,"trial_length":7,"click_num":2,"RT":3664.100000000093,"action":1,"reward":2.5},{"phase":"TASK","trial_num":90,"trial_length":7,"click_num":3,"RT":1416,"action":1,"reward":3.4},{"phase":"TASK","trial_num":90,"trial_length":7,"click_num":4,"RT":1480.1000000000931,"action":1,"reward":2.9},{"phase":"TASK","trial_num":90,"trial_length":7,"click_num":5,"RT":1551.7999999998137,"action":1,"reward":2.6},{"phase":"TASK","trial_num":90,"trial_length":7,"click_num":6,"RT":1176,"action":0,"reward":3.4},{"phase":"TASK","trial_num":90,"trial_length":7,"click_num":7,"RT":2336.100000000093,"action":0,"reward":3.4},{"phase":"TASK","trial_num":91,"trial_length":9,"click_num":1,"RT":2239.1999999997206,"action":1,"reward":3.1},{"phase":"TASK","trial_num":91,"trial_length":9,"click_num":2,"RT":1183.6000000000931,"action":1,"reward":2},{"phase":"TASK","trial_num":91,"trial_length":9,"click_num":3,"RT":968.1000000000931,"action":1,"reward":3.5},{"phase":"TASK","trial_num":91,"trial_length":9,"click_num":4,"RT":1191.8999999999069,"action":1,"reward":3.5},{"phase":"TASK","trial_num":91,"trial_length":9,"click_num":5,"RT":1048.1000000000931,"action":1,"reward":2.3},{"phase":"TASK","trial_num":91,"trial_length":9,"click_num":6,"RT":1471.8999999999069,"action":1,"reward":3.2},{"phase":"TASK","trial_num":91,"trial_length":9,"click_num":7,"RT":1120.1000000000931,"action":0,"reward":3.5},{"phase":"TASK","trial_num":91,"trial_length":9,"click_num":8,"RT":1496,"action":0,"reward":3.5},{"phase":"TASK","trial_num":91,"trial_length":9,"click_num":9,"RT":983.8999999999069,"action":0,"reward":3.5},{"phase":"TASK","trial_num":92,"trial_length":10,"click_num":1,"RT":1231.8999999999069,"action":1,"reward":3.7},{"phase":"TASK","trial_num":92,"trial_length":10,"click_num":2,"RT":1096,"action":1,"reward":2.9},{"phase":"TASK","trial_num":92,"trial_length":10,"click_num":3,"RT":1167.8999999999069,"action":1,"reward":3.7},{"phase":"TASK","trial_num":92,"trial_length":10,"click_num":4,"RT":1384,"action":1,"reward":3.8},{"phase":"TASK","trial_num":92,"trial_length":10,"click_num":5,"RT":1360.2000000001863,"action":1,"reward":3.3},{"phase":"TASK","trial_num":92,"trial_length":10,"click_num":6,"RT":1159.7999999998137,"action":1,"reward":3.6},{"phase":"TASK","trial_num":92,"trial_length":10,"click_num":7,"RT":1200,"action":0,"reward":3.8},{"phase":"TASK","trial_num":92,"trial_length":10,"click_num":8,"RT":840.1000000000931,"action":0,"reward":3.8},{"phase":"TASK","trial_num":92,"trial_length":10,"click_num":9,"RT":855.8999999999069,"action":0,"reward":3.8},{"phase":"TASK","trial_num":92,"trial_length":10,"click_num":10,"RT":784.2000000001863,"action":0,"reward":3.8},{"phase":"TASK","trial_num":93,"trial_length":8,"click_num":1,"RT":2359.899999999907,"action":1,"reward":2.7},{"phase":"TASK","trial_num":93,"trial_length":8,"click_num":2,"RT":1639.8999999999069,"action":1,"reward":2.5},{"phase":"TASK","trial_num":93,"trial_length":8,"click_num":3,"RT":1680,"action":1,"reward":3.3},{"phase":"TASK","trial_num":93,"trial_length":8,"click_num":4,"RT":1384.1000000000931,"action":1,"reward":3},{"phase":"TASK","trial_num":93,"trial_length":8,"click_num":5,"RT":1367.8999999999069,"action":1,"reward":3.5},{"phase":"TASK","trial_num":93,"trial_length":8,"click_num":6,"RT":1896.1000000000931,"action":0,"reward":3.5},{"phase":"TASK","trial_num":93,"trial_length":8,"click_num":7,"RT":920,"action":1,"reward":4.3},{"phase":"TASK","trial_num":93,"trial_length":8,"click_num":8,"RT":1576.2999999998137,"action":0,"reward":4.3},{"phase":"TASK","trial_num":94,"trial_length":5,"click_num":1,"RT":5055.700000000186,"action":1,"reward":4},{"phase":"TASK","trial_num":94,"trial_length":5,"click_num":2,"RT":2312,"action":1,"reward":3.1},{"phase":"TASK","trial_num":94,"trial_length":5,"click_num":3,"RT":1727.7999999998137,"action":0,"reward":4},{"phase":"TASK","trial_num":94,"trial_length":5,"click_num":4,"RT":992,"action":0,"reward":4},{"phase":"TASK","trial_num":94,"trial_length":5,"click_num":5,"RT":1072.1000000000931,"action":0,"reward":4},{"phase":"TASK","trial_num":95,"trial_length":10,"click_num":1,"RT":1383.6999999997206,"action":1,"reward":3.5},{"phase":"TASK","trial_num":95,"trial_length":10,"click_num":2,"RT":1544,"action":1,"reward":3.3},{"phase":"TASK","trial_num":95,"trial_length":10,"click_num":3,"RT":1112.1000000000931,"action":1,"reward":3.1},{"phase":"TASK","trial_num":95,"trial_length":10,"click_num":4,"RT":1231.8999999999069,"action":1,"reward":3},{"phase":"TASK","trial_num":95,"trial_length":10,"click_num":5,"RT":3080.2000000001863,"action":1,"reward":3.1},{"phase":"TASK","trial_num":95,"trial_length":10,"click_num":6,"RT":1663.8999999999069,"action":1,"reward":3.1},{"phase":"TASK","trial_num":95,"trial_length":10,"click_num":7,"RT":1183.8999999999069,"action":1,"reward":2.9},{"phase":"TASK","trial_num":95,"trial_length":10,"click_num":8,"RT":1432.1000000000931,"action":0,"reward":3.5},{"phase":"TASK","trial_num":95,"trial_length":10,"click_num":9,"RT":1575.8999999999069,"action":0,"reward":3.5},{"phase":"TASK","trial_num":95,"trial_length":10,"click_num":10,"RT":1136.1000000000931,"action":0,"reward":3.5},{"phase":"TASK","trial_num":96,"trial_length":9,"click_num":1,"RT":1103.8999999999069,"action":1,"reward":3.2},{"phase":"TASK","trial_num":96,"trial_length":9,"click_num":2,"RT":1023.8999999999069,"action":1,"reward":4.2},{"phase":"TASK","trial_num":96,"trial_length":9,"click_num":3,"RT":1272.1000000000931,"action":1,"reward":2.9},{"phase":"TASK","trial_num":96,"trial_length":9,"click_num":4,"RT":1145,"action":0,"reward":4.2},{"phase":"TASK","trial_num":96,"trial_length":9,"click_num":5,"RT":1358.8999999999069,"action":0,"reward":4.2},{"phase":"TASK","trial_num":96,"trial_length":9,"click_num":6,"RT":880,"action":0,"reward":4.2},{"phase":"TASK","trial_num":96,"trial_length":9,"click_num":7,"RT":864.1000000000931,"action":0,"reward":4.2},{"phase":"TASK","trial_num":96,"trial_length":9,"click_num":8,"RT":1008.1000000000931,"action":0,"reward":4.2},{"phase":"TASK","trial_num":96,"trial_length":9,"click_num":9,"RT":895.8999999999069,"action":0,"reward":4.2},{"phase":"TASK","trial_num":97,"trial_length":10,"click_num":1,"RT":2487.9000000003725,"action":1,"reward":2.6},{"phase":"TASK","trial_num":97,"trial_length":10,"click_num":2,"RT":1607.6999999997206,"action":1,"reward":3.2},{"phase":"TASK","trial_num":97,"trial_length":10,"click_num":3,"RT":1240.1000000000931,"action":1,"reward":4.3},{"phase":"TASK","trial_num":97,"trial_length":10,"click_num":4,"RT":2783.899999999907,"action":0,"reward":4.3},{"phase":"TASK","trial_num":97,"trial_length":10,"click_num":5,"RT":880,"action":0,"reward":4.3},{"phase":"TASK","trial_num":97,"trial_length":10,"click_num":6,"RT":1120.2000000001863,"action":0,"reward":4.3},{"phase":"TASK","trial_num":97,"trial_length":10,"click_num":7,"RT":943.8999999999069,"action":0,"reward":4.3},{"phase":"TASK","trial_num":97,"trial_length":10,"click_num":8,"RT":1120.1000000000931,"action":0,"reward":4.3},{"phase":"TASK","trial_num":97,"trial_length":10,"click_num":9,"RT":1103.7999999998137,"action":0,"reward":4.3},{"phase":"TASK","trial_num":97,"trial_length":10,"click_num":10,"RT":1088.1000000000931,"action":0,"reward":4.3},{"phase":"TASK","trial_num":98,"trial_length":5,"click_num":1,"RT":1159.6000000000931,"action":1,"reward":2.8},{"phase":"TASK","trial_num":98,"trial_length":5,"click_num":2,"RT":1087.8999999999069,"action":1,"reward":3.9},{"phase":"TASK","trial_num":98,"trial_length":5,"click_num":3,"RT":1480.1000000000931,"action":0,"reward":3.9},{"phase":"TASK","trial_num":98,"trial_length":5,"click_num":4,"RT":832.1000000000931,"action":0,"reward":3.9},{"phase":"TASK","trial_num":98,"trial_length":5,"click_num":5,"RT":840.5,"action":0,"reward":3.9},{"phase":"TASK","trial_num":99,"trial_length":9,"click_num":1,"RT":1767.8999999999069,"action":1,"reward":2.1},{"phase":"TASK","trial_num":99,"trial_length":9,"click_num":2,"RT":1207.7999999998137,"action":1,"reward":3.4},{"phase":"TASK","trial_num":99,"trial_length":9,"click_num":3,"RT":1112.1000000000931,"action":1,"reward":2.6},{"phase":"TASK","trial_num":99,"trial_length":9,"click_num":4,"RT":1095.8999999999069,"action":1,"reward":2.6},{"phase":"TASK","trial_num":99,"trial_length":9,"click_num":5,"RT":1032.2000000001863,"action":1,"reward":2.6},{"phase":"TASK","trial_num":99,"trial_length":9,"click_num":6,"RT":1615.7999999998137,"action":1,"reward":3.6},{"phase":"TASK","trial_num":99,"trial_length":9,"click_num":7,"RT":1416.2000000001863,"action":0,"reward":3.6},{"phase":"TASK","trial_num":99,"trial_length":9,"click_num":8,"RT":871.8999999999069,"action":0,"reward":3.6},{"phase":"TASK","trial_num":99,"trial_length":9,"click_num":9,"RT":928,"action":0,"reward":3.6},{"phase":"TASK","trial_num":100,"trial_length":9,"click_num":1,"RT":1239.6999999997206,"action":1,"reward":2.5},{"phase":"TASK","trial_num":100,"trial_length":9,"click_num":2,"RT":1136,"action":1,"reward":3.2},{"phase":"TASK","trial_num":100,"trial_length":9,"click_num":3,"RT":7640.200000000186,"action":1,"reward":3.4},{"phase":"TASK","trial_num":100,"trial_length":9,"click_num":4,"RT":1263.8999999999069,"action":1,"reward":2},{"phase":"TASK","trial_num":100,"trial_length":9,"click_num":5,"RT":1240.1000000000931,"action":1,"reward":3.9},{"phase":"TASK","trial_num":100,"trial_length":9,"click_num":6,"RT":1679.8999999999069,"action":0,"reward":3.9},{"phase":"TASK","trial_num":100,"trial_length":9,"click_num":7,"RT":768,"action":0,"reward":3.9},{"phase":"TASK","trial_num":100,"trial_length":9,"click_num":8,"RT":808,"action":0,"reward":3.9},{"phase":"TASK","trial_num":100,"trial_length":9,"click_num":9,"RT":1072.5,"action":0,"reward":3.9},{"phase":"TASK","trial_num":101,"trial_length":10,"click_num":1,"RT":1080.5,"action":1,"reward":2.3},{"phase":"TASK","trial_num":101,"trial_length":10,"click_num":2,"RT":1071.2999999998137,"action":1,"reward":2.3},{"phase":"TASK","trial_num":101,"trial_length":10,"click_num":3,"RT":999.8999999999069,"action":1,"reward":2.6},{"phase":"TASK","trial_num":101,"trial_length":10,"click_num":4,"RT":1032,"action":1,"reward":2.5},{"phase":"TASK","trial_num":101,"trial_length":10,"click_num":5,"RT":888,"action":1,"reward":3.2},{"phase":"TASK","trial_num":101,"trial_length":10,"click_num":6,"RT":1064.1000000000931,"action":1,"reward":3.5},{"phase":"TASK","trial_num":101,"trial_length":10,"click_num":7,"RT":952.1000000000931,"action":1,"reward":2.7},{"phase":"TASK","trial_num":101,"trial_length":10,"click_num":8,"RT":1071.8999999999069,"action":1,"reward":3.1},{"phase":"TASK","trial_num":101,"trial_length":10,"click_num":9,"RT":1152.2999999998137,"action":0,"reward":3.5},{"phase":"TASK","trial_num":101,"trial_length":10,"click_num":10,"RT":983.8000000002794,"action":0,"reward":3.5},{"phase":"TASK","trial_num":102,"trial_length":6,"click_num":1,"RT":1111.8999999999069,"action":1,"reward":3},{"phase":"TASK","trial_num":102,"trial_length":6,"click_num":2,"RT":992,"action":1,"reward":2.6},{"phase":"TASK","trial_num":102,"trial_length":6,"click_num":3,"RT":952.1000000000931,"action":1,"reward":3.2},{"phase":"TASK","trial_num":102,"trial_length":6,"click_num":4,"RT":1095.7999999998137,"action":1,"reward":2.1},{"phase":"TASK","trial_num":102,"trial_length":6,"click_num":5,"RT":1160.1000000000931,"action":1,"reward":3.5},{"phase":"TASK","trial_num":102,"trial_length":6,"click_num":6,"RT":1784,"action":0,"reward":3.5},{"phase":"TASK","trial_num":103,"trial_length":5,"click_num":1,"RT":1623.7999999998137,"action":1,"reward":3.9},{"phase":"TASK","trial_num":103,"trial_length":5,"click_num":2,"RT":2048,"action":0,"reward":3.9},{"phase":"TASK","trial_num":103,"trial_length":5,"click_num":3,"RT":1336,"action":0,"reward":3.9},{"phase":"TASK","trial_num":103,"trial_length":5,"click_num":4,"RT":896,"action":0,"reward":3.9},{"phase":"TASK","trial_num":103,"trial_length":5,"click_num":5,"RT":1448,"action":0,"reward":3.9},{"phase":"TASK","trial_num":104,"trial_length":10,"click_num":1,"RT":999.7999999998137,"action":1,"reward":2.5},{"phase":"TASK","trial_num":104,"trial_length":10,"click_num":2,"RT":968.1000000000931,"action":1,"reward":3.3},{"phase":"TASK","trial_num":104,"trial_length":10,"click_num":3,"RT":952.2000000001863,"action":1,"reward":1.4},{"phase":"TASK","trial_num":104,"trial_length":10,"click_num":4,"RT":1383.6999999997206,"action":1,"reward":3.1},{"phase":"TASK","trial_num":104,"trial_length":10,"click_num":5,"RT":1568.1000000000931,"action":1,"reward":3.8},{"phase":"TASK","trial_num":104,"trial_length":10,"click_num":6,"RT":1551.8999999999069,"action":0,"reward":3.8},{"phase":"TASK","trial_num":104,"trial_length":10,"click_num":7,"RT":1160.1000000000931,"action":0,"reward":3.8},{"phase":"TASK","trial_num":104,"trial_length":10,"click_num":8,"RT":999.8999999999069,"action":0,"reward":3.8},{"phase":"TASK","trial_num":104,"trial_length":10,"click_num":9,"RT":912.1000000000931,"action":0,"reward":3.8},{"phase":"TASK","trial_num":104,"trial_length":10,"click_num":10,"RT":928.1000000000931,"action":0,"reward":3.8},{"phase":"TASK","trial_num":105,"trial_length":10,"click_num":1,"RT":1359.5,"action":1,"reward":2.3},{"phase":"TASK","trial_num":105,"trial_length":10,"click_num":2,"RT":1087.7999999998137,"action":1,"reward":2.8},{"phase":"TASK","trial_num":105,"trial_length":10,"click_num":3,"RT":1096,"action":1,"reward":2.3},{"phase":"TASK","trial_num":105,"trial_length":10,"click_num":4,"RT":1064,"action":1,"reward":2.9},{"phase":"TASK","trial_num":105,"trial_length":10,"click_num":5,"RT":1096.1000000000931,"action":1,"reward":3.2},{"phase":"TASK","trial_num":105,"trial_length":10,"click_num":6,"RT":1008.1000000000931,"action":1,"reward":3.3},{"phase":"TASK","trial_num":105,"trial_length":10,"click_num":7,"RT":1031.7999999998137,"action":1,"reward":2.8},{"phase":"TASK","trial_num":105,"trial_length":10,"click_num":8,"RT":1064.1000000000931,"action":1,"reward":4},{"phase":"TASK","trial_num":105,"trial_length":10,"click_num":9,"RT":1352,"action":0,"reward":4},{"phase":"TASK","trial_num":105,"trial_length":10,"click_num":10,"RT":920.1000000000931,"action":0,"reward":4},{"phase":"TASK","trial_num":106,"trial_length":6,"click_num":1,"RT":1839.9000000003725,"action":1,"reward":2.9},{"phase":"TASK","trial_num":106,"trial_length":6,"click_num":2,"RT":1424,"action":1,"reward":2.4},{"phase":"TASK","trial_num":106,"trial_length":6,"click_num":3,"RT":1280,"action":1,"reward":3.5},{"phase":"TASK","trial_num":106,"trial_length":6,"click_num":4,"RT":2152.5,"action":0,"reward":3.5},{"phase":"TASK","trial_num":106,"trial_length":6,"click_num":5,"RT":1951.4000000003725,"action":1,"reward":3},{"phase":"TASK","trial_num":106,"trial_length":6,"click_num":6,"RT":1104,"action":0,"reward":3.5},{"phase":"TASK","trial_num":107,"trial_length":9,"click_num":1,"RT":1047.7999999998137,"action":1,"reward":3},{"phase":"TASK","trial_num":107,"trial_length":9,"click_num":2,"RT":928.0999999996275,"action":1,"reward":2.7},{"phase":"TASK","trial_num":107,"trial_length":9,"click_num":3,"RT":967.8000000007451,"action":1,"reward":2.7},{"phase":"TASK","trial_num":107,"trial_length":9,"click_num":4,"RT":1256.0999999996275,"action":1,"reward":3.8},{"phase":"TASK","trial_num":107,"trial_length":9,"click_num":5,"RT":1551.9000000003725,"action":0,"reward":3.8},{"phase":"TASK","trial_num":107,"trial_length":9,"click_num":6,"RT":880,"action":0,"reward":3.8},{"phase":"TASK","trial_num":107,"trial_length":9,"click_num":7,"RT":992.0999999996275,"action":0,"reward":3.8},{"phase":"TASK","trial_num":107,"trial_length":9,"click_num":8,"RT":879.9000000003725,"action":0,"reward":3.8},{"phase":"TASK","trial_num":107,"trial_length":9,"click_num":9,"RT":1392.0999999996275,"action":0,"reward":3.8},{"phase":"TASK","trial_num":108,"trial_length":7,"click_num":1,"RT":1079.800000000745,"action":1,"reward":2.3},{"phase":"TASK","trial_num":108,"trial_length":7,"click_num":2,"RT":960.0999999996275,"action":1,"reward":2.9},{"phase":"TASK","trial_num":108,"trial_length":7,"click_num":3,"RT":823.9000000003725,"action":1,"reward":2.7},{"phase":"TASK","trial_num":108,"trial_length":7,"click_num":4,"RT":888.0999999996275,"action":1,"reward":3.3},{"phase":"TASK","trial_num":108,"trial_length":7,"click_num":5,"RT":1072,"action":1,"reward":3.5},{"phase":"TASK","trial_num":108,"trial_length":7,"click_num":6,"RT":1024,"action":1,"reward":3.5},{"phase":"TASK","trial_num":108,"trial_length":7,"click_num":7,"RT":1639.9000000003725,"action":0,"reward":3.5},{"phase":"TASK","trial_num":109,"trial_length":5,"click_num":1,"RT":1048,"action":1,"reward":3.4},{"phase":"TASK","trial_num":109,"trial_length":5,"click_num":2,"RT":1079.7999999998137,"action":1,"reward":1.6},{"phase":"TASK","trial_num":109,"trial_length":5,"click_num":3,"RT":1736,"action":1,"reward":3.3},{"phase":"TASK","trial_num":109,"trial_length":5,"click_num":4,"RT":1392,"action":1,"reward":3.7},{"phase":"TASK","trial_num":109,"trial_length":5,"click_num":5,"RT":1208,"action":0,"reward":3.7},{"phase":"TASK","trial_num":110,"trial_length":5,"click_num":1,"RT":2047.9000000003725,"action":1,"reward":3.1},{"phase":"TASK","trial_num":110,"trial_length":5,"click_num":2,"RT":944.0999999996275,"action":1,"reward":3.6},{"phase":"TASK","trial_num":110,"trial_length":5,"click_num":3,"RT":952,"action":1,"reward":3.7},{"phase":"TASK","trial_num":110,"trial_length":5,"click_num":4,"RT":2175.9000000003725,"action":1,"reward":3.1},{"phase":"TASK","trial_num":110,"trial_length":5,"click_num":5,"RT":2336.0999999996275,"action":0,"reward":3.7},{"phase":"TASK","trial_num":111,"trial_length":9,"click_num":1,"RT":1479.9000000003725,"action":1,"reward":2.6},{"phase":"TASK","trial_num":111,"trial_length":9,"click_num":2,"RT":936,"action":1,"reward":3.1},{"phase":"TASK","trial_num":111,"trial_length":9,"click_num":3,"RT":1096,"action":1,"reward":3.1},{"phase":"TASK","trial_num":111,"trial_length":9,"click_num":4,"RT":1088,"action":1,"reward":3.5},{"phase":"TASK","trial_num":111,"trial_length":9,"click_num":5,"RT":1080.0999999996275,"action":1,"reward":3},{"phase":"TASK","trial_num":111,"trial_length":9,"click_num":6,"RT":1047.9000000003725,"action":1,"reward":1.8},{"phase":"TASK","trial_num":111,"trial_length":9,"click_num":7,"RT":1487.9000000003725,"action":0,"reward":3.5},{"phase":"TASK","trial_num":111,"trial_length":9,"click_num":8,"RT":943.8999999994412,"action":0,"reward":3.5},{"phase":"TASK","trial_num":111,"trial_length":9,"click_num":9,"RT":960.2000000001863,"action":0,"reward":3.5},{"phase":"TASK","trial_num":112,"trial_length":6,"click_num":1,"RT":1160.1000000005588,"action":1,"reward":3.6},{"phase":"TASK","trial_num":112,"trial_length":6,"click_num":2,"RT":1039.7000000001863,"action":1,"reward":2.1},{"phase":"TASK","trial_num":112,"trial_length":6,"click_num":3,"RT":1088.0999999996275,"action":1,"reward":4},{"phase":"TASK","trial_num":112,"trial_length":6,"click_num":4,"RT":1632,"action":0,"reward":4},{"phase":"TASK","trial_num":112,"trial_length":6,"click_num":5,"RT":968,"action":0,"reward":4},{"phase":"TASK","trial_num":112,"trial_length":6,"click_num":6,"RT":1135.9000000003725,"action":0,"reward":4},{"phase":"TASK","trial_num":113,"trial_length":7,"click_num":1,"RT":1807.7999999998137,"action":1,"reward":3.4},{"phase":"TASK","trial_num":113,"trial_length":7,"click_num":2,"RT":1992.0999999996275,"action":1,"reward":4},{"phase":"TASK","trial_num":113,"trial_length":7,"click_num":3,"RT":1144,"action":1,"reward":2.8},{"phase":"TASK","trial_num":113,"trial_length":7,"click_num":4,"RT":1399.9000000003725,"action":1,"reward":2.6},{"phase":"TASK","trial_num":113,"trial_length":7,"click_num":5,"RT":1520,"action":0,"reward":4},{"phase":"TASK","trial_num":113,"trial_length":7,"click_num":6,"RT":848,"action":0,"reward":4},{"phase":"TASK","trial_num":113,"trial_length":7,"click_num":7,"RT":960.0999999996275,"action":0,"reward":4},{"phase":"TASK","trial_num":114,"trial_length":5,"click_num":1,"RT":1103.9000000003725,"action":1,"reward":2.8},{"phase":"TASK","trial_num":114,"trial_length":5,"click_num":2,"RT":912,"action":1,"reward":3.1},{"phase":"TASK","trial_num":114,"trial_length":5,"click_num":3,"RT":1000,"action":1,"reward":3.6},{"phase":"TASK","trial_num":114,"trial_length":5,"click_num":4,"RT":975.9000000003725,"action":1,"reward":3.5},{"phase":"TASK","trial_num":114,"trial_length":5,"click_num":5,"RT":1112.0999999996275,"action":0,"reward":3.6},{"phase":"TASK","trial_num":115,"trial_length":9,"click_num":1,"RT":1007.8000000007451,"action":1,"reward":2.2},{"phase":"TASK","trial_num":115,"trial_length":9,"click_num":2,"RT":1088.0999999996275,"action":1,"reward":3.7},{"phase":"TASK","trial_num":115,"trial_length":9,"click_num":3,"RT":904,"action":1,"reward":3.4},{"phase":"TASK","trial_num":115,"trial_length":9,"click_num":4,"RT":1023.9000000003725,"action":1,"reward":2.9},{"phase":"TASK","trial_num":115,"trial_length":9,"click_num":5,"RT":1240.0999999996275,"action":0,"reward":3.7},{"phase":"TASK","trial_num":115,"trial_length":9,"click_num":6,"RT":975.9000000003725,"action":0,"reward":3.7},{"phase":"TASK","trial_num":115,"trial_length":9,"click_num":7,"RT":848,"action":0,"reward":3.7},{"phase":"TASK","trial_num":115,"trial_length":9,"click_num":8,"RT":896.0999999996275,"action":0,"reward":3.7},{"phase":"TASK","trial_num":115,"trial_length":9,"click_num":9,"RT":976,"action":0,"reward":3.7},{"phase":"TASK","trial_num":116,"trial_length":8,"click_num":1,"RT":1823.7999999998137,"action":1,"reward":3.2},{"phase":"TASK","trial_num":116,"trial_length":8,"click_num":2,"RT":871.9000000003725,"action":1,"reward":2.5},{"phase":"TASK","trial_num":116,"trial_length":8,"click_num":3,"RT":880.1999999992549,"action":1,"reward":2.7},{"phase":"TASK","trial_num":116,"trial_length":8,"click_num":4,"RT":864,"action":1,"reward":2.8},{"phase":"TASK","trial_num":116,"trial_length":8,"click_num":5,"RT":920.1000000005588,"action":1,"reward":3.3},{"phase":"TASK","trial_num":116,"trial_length":8,"click_num":6,"RT":1031.8999999994412,"action":1,"reward":1.5},{"phase":"TASK","trial_num":116,"trial_length":8,"click_num":7,"RT":1352,"action":0,"reward":3.3},{"phase":"TASK","trial_num":116,"trial_length":8,"click_num":8,"RT":904.1000000005588,"action":0,"reward":3.3},{"phase":"TASK","trial_num":117,"trial_length":10,"click_num":1,"RT":912.0999999996275,"action":1,"reward":2.9},{"phase":"TASK","trial_num":117,"trial_length":10,"click_num":2,"RT":871.4000000003725,"action":1,"reward":3.6},{"phase":"TASK","trial_num":117,"trial_length":10,"click_num":3,"RT":904.0999999996275,"action":1,"reward":2.8},{"phase":"TASK","trial_num":117,"trial_length":10,"click_num":4,"RT":984.0999999996275,"action":1,"reward":3.5},{"phase":"TASK","trial_num":117,"trial_length":10,"click_num":5,"RT":1111.9000000003725,"action":1,"reward":3.1},{"phase":"TASK","trial_num":117,"trial_length":10,"click_num":6,"RT":1248,"action":0,"reward":3.6},{"phase":"TASK","trial_num":117,"trial_length":10,"click_num":7,"RT":896.0999999996275,"action":1,"reward":2.2},{"phase":"TASK","trial_num":117,"trial_length":10,"click_num":8,"RT":943.8000000007451,"action":0,"reward":3.6},{"phase":"TASK","trial_num":117,"trial_length":10,"click_num":9,"RT":1456.0999999996275,"action":0,"reward":3.6},{"phase":"TASK","trial_num":117,"trial_length":10,"click_num":10,"RT":1024,"action":0,"reward":3.6},{"phase":"TASK","trial_num":118,"trial_length":7,"click_num":1,"RT":1191.7000000001863,"action":1,"reward":3.1},{"phase":"TASK","trial_num":118,"trial_length":7,"click_num":2,"RT":928.1000000005588,"action":1,"reward":2.7},{"phase":"TASK","trial_num":118,"trial_length":7,"click_num":3,"RT":1464.0999999996275,"action":1,"reward":2.4},{"phase":"TASK","trial_num":118,"trial_length":7,"click_num":4,"RT":1087.9000000003725,"action":1,"reward":3.2},{"phase":"TASK","trial_num":118,"trial_length":7,"click_num":5,"RT":1288.0999999996275,"action":1,"reward":3.6},{"phase":"TASK","trial_num":118,"trial_length":7,"click_num":6,"RT":1208,"action":0,"reward":3.6},{"phase":"TASK","trial_num":118,"trial_length":7,"click_num":7,"RT":1040.0999999996275,"action":0,"reward":3.6},{"phase":"TASK","trial_num":119,"trial_length":9,"click_num":1,"RT":991.7999999998137,"action":1,"reward":2.4},{"phase":"TASK","trial_num":119,"trial_length":9,"click_num":2,"RT":896.0999999996275,"action":1,"reward":3.1},{"phase":"TASK","trial_num":119,"trial_length":9,"click_num":3,"RT":863.9000000003725,"action":1,"reward":3.2},{"phase":"TASK","trial_num":119,"trial_length":9,"click_num":4,"RT":800,"action":1,"reward":3},{"phase":"TASK","trial_num":119,"trial_length":9,"click_num":5,"RT":904.7000000001863,"action":1,"reward":3.6},{"phase":"TASK","trial_num":119,"trial_length":9,"click_num":6,"RT":1183.2999999998137,"action":1,"reward":3.4},{"phase":"TASK","trial_num":119,"trial_length":9,"click_num":7,"RT":1223.9000000003725,"action":0,"reward":3.6},{"phase":"TASK","trial_num":119,"trial_length":9,"click_num":8,"RT":1664.0999999996275,"action":0,"reward":3.6},{"phase":"TASK","trial_num":119,"trial_length":9,"click_num":9,"RT":975.9000000003725,"action":0,"reward":3.6},{"phase":"TASK","trial_num":120,"trial_length":7,"click_num":1,"RT":1359.800000000745,"action":1,"reward":2.8},{"phase":"TASK","trial_num":120,"trial_length":7,"click_num":2,"RT":976.0999999996275,"action":1,"reward":2.3},{"phase":"TASK","trial_num":120,"trial_length":7,"click_num":3,"RT":2544,"action":1,"reward":3.7},{"phase":"TASK","trial_num":120,"trial_length":7,"click_num":4,"RT":1951.9000000003725,"action":0,"reward":3.7},{"phase":"TASK","trial_num":120,"trial_length":7,"click_num":5,"RT":1160.0999999996275,"action":0,"reward":3.7},{"phase":"TASK","trial_num":120,"trial_length":7,"click_num":6,"RT":920,"action":0,"reward":3.7},{"phase":"TASK","trial_num":120,"trial_length":7,"click_num":7,"RT":911.9000000003725,"action":0,"reward":3.7},{"phase":"TASK","trial_num":121,"trial_length":5,"click_num":1,"RT":12207.799999999814,"action":1,"reward":2.6},{"phase":"TASK","trial_num":121,"trial_length":5,"click_num":2,"RT":1176,"action":1,"reward":3.7},{"phase":"TASK","trial_num":121,"trial_length":5,"click_num":3,"RT":1959.9000000003725,"action":0,"reward":3.7},{"phase":"TASK","trial_num":121,"trial_length":5,"click_num":4,"RT":808.0999999996275,"action":0,"reward":3.7},{"phase":"TASK","trial_num":121,"trial_length":5,"click_num":5,"RT":919.9000000003725,"action":0,"reward":3.7},{"phase":"TASK","trial_num":122,"trial_length":9,"click_num":1,"RT":1967.7999999998137,"action":1,"reward":3.4},{"phase":"TASK","trial_num":122,"trial_length":9,"click_num":2,"RT":968,"action":1,"reward":2.9},{"phase":"TASK","trial_num":122,"trial_length":9,"click_num":3,"RT":968,"action":1,"reward":3.1},{"phase":"TASK","trial_num":122,"trial_length":9,"click_num":4,"RT":1127.9000000003725,"action":1,"reward":3.3},{"phase":"TASK","trial_num":122,"trial_length":9,"click_num":5,"RT":1424.0999999996275,"action":1,"reward":4.2},{"phase":"TASK","trial_num":122,"trial_length":9,"click_num":6,"RT":1439.9000000003725,"action":0,"reward":4.2},{"phase":"TASK","trial_num":122,"trial_length":9,"click_num":7,"RT":840,"action":0,"reward":4.2},{"phase":"TASK","trial_num":122,"trial_length":9,"click_num":8,"RT":880,"action":0,"reward":4.2},{"phase":"TASK","trial_num":122,"trial_length":9,"click_num":9,"RT":1024.0999999996275,"action":0,"reward":4.2},{"phase":"TASK","trial_num":123,"trial_length":7,"click_num":1,"RT":1495.9000000003725,"action":1,"reward":3.9},{"phase":"TASK","trial_num":123,"trial_length":7,"click_num":2,"RT":1639.9000000003725,"action":0,"reward":3.9},{"phase":"TASK","trial_num":123,"trial_length":7,"click_num":3,"RT":1112.0999999996275,"action":0,"reward":3.9},{"phase":"TASK","trial_num":123,"trial_length":7,"click_num":4,"RT":976,"action":0,"reward":3.9},{"phase":"TASK","trial_num":123,"trial_length":7,"click_num":5,"RT":952.2000000001863,"action":0,"reward":3.9},{"phase":"TASK","trial_num":123,"trial_length":7,"click_num":6,"RT":1152,"action":0,"reward":3.9},{"phase":"TASK","trial_num":123,"trial_length":7,"click_num":7,"RT":928,"action":0,"reward":3.9},{"phase":"TASK","trial_num":124,"trial_length":10,"click_num":1,"RT":1303.7999999998137,"action":1,"reward":3.9},{"phase":"TASK","trial_num":124,"trial_length":10,"click_num":2,"RT":1135.7999999998137,"action":1,"reward":2.9},{"phase":"TASK","trial_num":124,"trial_length":10,"click_num":3,"RT":1887.9000000003725,"action":1,"reward":3.2},{"phase":"TASK","trial_num":124,"trial_length":10,"click_num":4,"RT":1088.0999999996275,"action":0,"reward":3