[
  {
    "phase": "TASK",
    "condition": "Cond3",
    "trial_num": 1,
    "trial_length": 9,
    "click_num": 1,
    "RT": 6919,
    "action": 1,
    "reward": 3.9
  },
  {
    "phase": "TASK",
    "condition": "Cond3",
    "trial_num": 1,
    "trial_length": 9,
    "click_num": 2,
    "RT": 8751,
    "action": 1,
    "reward": 3.3
  },
  {
    "phase": "TASK",
    "condition": "Cond3",
    "trial_num": 1,
    "trial_length": 9,
    "click_num": 3,
    "RT": 5662,
    "action": 1,
    "reward": 3.5
  },
  {
    "phase": "TASK",
    "condition": "Cond3",
    "trial_num": 1,
    "trial_length": 9,
    "click_num": 4,
    "RT": 2113,
    "action": 0,
    "reward": 3.9
  },
  {
    "phase": "TASK",
    "condition": "Cond3",
    "trial_num": 1,
    "trial_length": 9,
    "click_num": 5,
    "RT": 2167,
    "action": 0,
    "reward": 3.9
  },
  {
    "phase": "TASK",
    "condition": "Cond3",
    "trial_num": 1,
    "trial_length": 9,
    "click_num": 6,
    "RT": 1128,
    "action": 0,
    "reward": 3.9
  },
  {
    "phase": "TASK",
    "condition": "Cond3",
    "trial_num": 1,
    "trial_length": 9,
    "click_num": 7,
    "RT": 1232,
    "action": 0,
    "reward": 3.9
  },
  {
    "phase": "TASK",
    "condition": "Cond3",
    "trial_num": 1,
    "trial_length": 9,
    "click_num": 8,
    "RT": 1047,
    "action": 0,
    "reward": 3.9
  },
  {
    "phase": "TASK",
    "condition": "Cond3",
    "trial_num": 1,
    "trial_length": 9,
    "click_num": 9,
    "RT": 1252,
    "action": 0,
    "reward": 3.9
  },
  {
    "phase": "TASK",
    "condition": "Cond3",
    "trial_num": 2,
    "trial_length": 9,
    "click_num": 1,
    "RT": 1917,
    "action": 1,
    "reward": 3.2
  },
  {
    "phase": "TASK",
    "condition": "Cond3",
    "trial_num": 2,
    "trial_length": 9,
    "click_num": 2,
    "RT": 9377,
    "action": 1,
    "reward": 2.9
  },
  {
    "phase": "TASK",
    "condition": "Cond3",
    "trial_num": 2,
    "trial_length": 9,
    "click_num": 3,
    "RT": 2959,
    "action": 1,
    "reward": 3.2
  },
  {
    "phase": "TASK",
    "condition": "Cond3",
    "trial_num": 2,
    "trial_length": 9,
    "click_num": 4,
    "RT": 2891,
    "action": 1,
    "reward": 3.4
  },
  {
    "phase": "TASK",
    "condition": "Cond3",
    "trial_num": 2,
    "trial_length": 9,
    "click_num": 5,
    "RT": 4072,
    "action": 1,
    "reward": 3.5
  },
  {
    "phase": "TASK",
    "condition": "Cond3",
    "trial_num": 2,
    "trial_length": 9,
    "click_num": 6,
    "RT": 6957,
    "action": 0,
    "reward": 3.5
  },
  {
    "phase": "TASK",
    "condition": "Cond3",
    "trial_num": 2,
    "trial_length": 9,
    "click_num": 7,
    "RT": 991,
    "action": 0,
    "reward": 3.5
  },
  {
    "phase": "TASK",
    "condition": "Cond3",
    "trial_num": 2,
    "trial_length": 9,
    "click_num": 8,
    "RT": 1056,
    "action": 0,
    "reward": 3.5
  },
  {
    "phase": "TASK",
    "condition": "Cond3",
    "trial_num": 2,
    "trial_length": 9,
    "click_num": 9,
    "RT": 1627,
    "action": 0,
    "reward": 3.5
  },
  {
    "phase": "TASK",
    "condition": "Cond3",
    "trial_num": 3,
    "trial_length": 9,
    "click_num": 1,
    "RT": 2908,
    "action": 1,
    "reward": 3.3
  },
  {
    "phase": "TASK",
    "condition": "Cond3",
    "trial_num": 3,
    "trial_length": 9,
    "click_num": 2,
    "RT": 4216,
    "action": 1,
    "reward": 3.2
  },
  {
    "phase": "TASK",
    "condition": "Cond3",
    "trial_num": 3,
    "trial_length": 9,
    "click_num": 3,
    "RT": 1856,
    "action": 1,
    "reward": 2.3
  },
  {
    "phase": "TASK",
    "condition": "Cond3",
    "trial_num": 3,
    "trial_length": 9,
    "click_num": 4,
    "RT": 2424,
    "action": 1,
    "reward": 3.1
  },
  {
    "phase": "TASK",
    "condition": "Cond3",
    "trial_num": 3,
    "trial_length": 9,
    "click_num": 5,
    "RT": 1704,
    "action": 1,
    "reward": 2.3
  },
  {
    "phase": "TASK",
    "condition": "Cond3",
    "trial_num": 3,
    "trial_length": 9,
    "click_num": 6,
    "RT": 1809,
    "action": 1,
    "reward": 3.1
  },
  {
    "phase": "TASK",
    "condition": "Cond3",
    "trial_num": 3,
    "trial_length": 9,
    "click_num": 7,
    "RT": 2432,
    "action": 1,
    "reward": 1.7
  },
  {
    "phase": "TASK",
    "condition": "Cond3",
    "trial_num": 3,
    "trial_length": 9,
    "click_num": 8,
    "RT": 2432,
    "action": 0,
    "reward": 3.3
  },
  {
    "phase": "TASK",
    "condition": "Cond3",
    "trial_num": 3,
    "trial_length": 9,
    "click_num": 9,
    "RT": 1111,
    "action": 0,
    "reward": 3.3
  },
  {
    "phase": "TASK",
    "condition": "Cond3",
    "trial_num": 4,
    "trial_length": 6,
    "click_num": 1,
    "RT": 2815,
    "action": 1,
    "reward": 2.3
  },
  {
    "phase": "TASK",
    "condition": "Cond3",
    "trial_num": 4,
    "trial_length": 6,
    "click_num": 2,
    "RT": 1718,
    "action": 1,
    "reward": 2.7
  },
  {
    "phase": "TASK",
    "condition": "Cond3",
    "trial_num": 4,
    "trial_length": 6,
    "click_num": 3,
    "RT": 1467,
    "action": 1,
    "reward": 2.6
  },
  {
    "phase": "TASK",
    "condition": "Cond3",
    "trial_num": 4,
    "trial_length": 6,
    "click_num": 4,
    "RT": 1560,
    "action": 1,
    "reward": 3.8
  },
  {
    "phase": "TASK",
    "condition": "Cond3",
    "trial_num": 4,
    "trial_length": 6,
    "click_num": 5,
    "RT": 1859,
    "action": 0,
    "reward": 3.8
  },
  {
    "phase": "TASK",
    "condition": "Cond3",
    "trial_num": 4,
    "trial_length": 6,
    "click_num": 6,
    "RT": 1028,
    "action": 0,
    "reward": 3.8
  },
  {
    "phase": "TASK",
    "condition": "Cond3",
    "trial_num": 5,
    "trial_length": 5,
    "click_num": 1,
    "RT": 2482,
    "action": 1,
    "reward": 3.7
  },
  {
    "phase": "TASK",
    "condition": "Cond3",
    "trial_num": 5,
    "trial_length": 5,
    "click_num": 2,
    "RT": 1917,
    "action": 0,
    "reward": 3.7
  },
  {
    "phase": "TASK",
    "condition": "Cond3",
    "trial_num": 5,
    "trial_length": 5,
    "click_num": 3,
    "RT": 1136,
    "action": 0,
    "reward": 3.7
  },
  {
    "phase": "TASK",
    "condition": "Cond3",
    "trial_num": 5,
    "trial_length": 5,
    "click_num": 4,
    "RT": 912,
    "action": 0,
    "reward": 3.7
  },
  {
    "phase": "TASK",
    "condition": "Cond3",
    "trial_num": 5,
    "trial_length": 5,
    "click_num": 5,
    "RT": 967,
    "action": 0,
    "reward": 3.7
  },
  {
    "phase": "TASK",
    "condition": "Cond3",
    "trial_num": 6,
    "trial_length": 10,
    "click_num": 1,
    "RT": 2006,
    "action": 1,
    "reward": 3
  },
  {
    "phase": "TASK",
    "condition": "Cond3",
    "trial_num": 6,
    "trial_length": 10,
    "click_num": 2,
    "RT": 1928,
    "action": 1,
    "reward": 3.2
  },
  {
    "phase": "TASK",
    "condition": "Cond3",
    "trial_num": 6,
    "trial_length": 10,
    "click_num": 3,
    "RT": 1953,
    "action": 1,
    "reward": 2.6
  },
  {
    "phase": "TASK",
    "condition": "Cond3",
    "trial_num": 6,
    "trial_length": 10,
    "click_num": 4,
    "RT": 4168,
    "action": 1,
    "reward": 3.5
  },
  {
    "phase": "TASK",
    "condition": "Cond3",
    "trial_num": 6,
    "trial_length": 10,
    "click_num": 5,
    "RT": 3487,
    "action": 0,
    "reward": 3.5
  },
  {
    "phase": "TASK",
    "condition": "Cond3",
    "trial_num": 6,
    "trial_length": 10,
    "click_num": 6,
    "RT": 960,
    "action": 0,
    "reward": 3.5
  },
  {
    "phase": "TASK",
    "condition": "Cond3",
    "trial_num": 6,
    "trial_length": 10,
    "click_num": 7,
    "RT": 983,
    "action": 0,
    "reward": 3.5
  },
  {
    "phase": "TASK",
    "condition": "Cond3",
    "trial_num": 6,
    "trial_length": 10,
    "click_num": 8,
    "RT": 1216,
    "action": 0,
    "reward": 3.5
  },
  {
    "phase": "TASK",
    "condition": "Cond3",
    "trial_num": 6,
    "trial_length": 10,
    "click_num": 9,
    "RT": 2209,
    "action": 0,
    "reward": 3.5
  },
  {
    "phase": "TASK",
    "condition": "Cond3",
    "trial_num": 6,
    "trial_length": 10,
    "click_num": 10,
    "RT": 1079,
    "action": 0,
    "reward": 3.5
  },
  {
    "phase": "TASK",
    "condition": "Cond3",
    "trial_num": 7,
    "trial_length": 5,
    "click_num": 1,
    "RT": 2678,
    "action": 1,
    "reward": 3.4
  },
  {
    "phase": "TASK",
    "condition": "Cond3",
    "trial_num": 7,
    "trial_length": 5,
    "click_num": 2,
    "RT": 5264,
    "action": 0,
    "reward": 3.4
  },
  {
    "phase": "TASK",
    "condition": "Cond3",
    "trial_num": 7,
    "trial_length": 5,
    "click_num": 3,
    "RT": 2575,
    "action": 1,
    "reward": 3.4
  },
  {
    "phase": "TASK",
    "condition": "Cond3",
    "trial_num": 7,
    "trial_length": 5,
    "click_num": 4,
    "RT": 5401,
    "action": 1,
    "reward": 2.4
  },
  {
    "phase": "TASK",
    "condition": "Cond3",
    "trial_num": 7,
    "trial_length": 5,
    "click_num": 5,
    "RT": 1425,
    "action": 0,
    "reward": 3.4
  },
  {
    "phase": "TASK",
    "condition": "Cond3",
    "trial_num": 8,
    "trial_length": 9,
    "click_num": 1,
    "RT": 2202,
    "action": 1,
    "reward": 2.1
  },
  {
    "phase": "TASK",
    "condition": "Cond3",
    "trial_num": 8,
    "trial_length": 9,
    "click_num": 2,
    "RT": 1504,
    "action": 1,
    "reward": 4.1
  },
  {
    "phase": "TASK",
    "condition": "Cond3",
    "trial_num": 8,
    "trial_length": 9,
    "click_num": 3,
    "RT": 1815,
    "action": 0,
    "reward": 4.1
  },
  {
    "phase": "TASK",
    "condition": "Cond3",
    "trial_num": 8,
    "trial_length": 9,
    "click_num": 4,
    "RT": 969,
    "action": 0,
    "reward": 4.1
  },
  {
    "phase": "TASK",
    "condition": "Cond3",
    "trial_num": 8,
    "trial_length": 9,
    "click_num": 5,
    "RT": 951,
    "action": 0,
    "reward": 4.1
  },
  {
    "phase": "TASK",
    "condition": "Cond3",
    "trial_num": 8,
    "trial_length": 9,
    "click_num": 6,
    "RT": 1112,
    "action": 0,
    "reward": 4.1
  },
  {
    "phase": "TASK",
    "condition": "Cond3",
    "trial_num": 8,
    "trial_length": 9,
    "click_num": 7,
    "RT": 1272,
    "action": 0,
    "reward": 4.1
  },
  {
    "phase": "TASK",
    "condition": "Cond3",
    "trial_num": 8,
    "trial_length": 9,
    "click_num": 8,
    "RT": 1224,
    "action": 0,
    "reward": 4.1
  },
  {
    "phase": "TASK",
    "condition": "Cond3",
    "trial_num": 8,
    "trial_length": 9,
    "click_num": 9,
    "RT": 1038,
    "action": 0,
    "reward": 4.1
  },
  {
    "phase": "TASK",
    "condition": "Cond3",
    "trial_num": 9,
    "trial_length": 7,
    "click_num": 1,
    "RT": 8544,
    "action": 1,
    "reward": 3.1
  },
  {
    "phase": "TASK",
    "condition": "Cond3",
    "trial_num": 9,
    "trial_length": 7,
    "click_num": 2,
    "RT": 2007,
    "action": 1,
    "reward": 2.5
  },
  {
    "phase": "TASK",
    "condition": "Cond3",
    "trial_num": 9,
    "trial_length": 7,
    "click_num": 3,
    "RT": 1224,
    "action": 1,
    "reward": 3.6
  },
  {
    "phase": "TASK",
    "condition": "Cond3",
    "trial_num": 9,
    "trial_length": 7,
    "click_num": 4,
    "RT": 2039,
    "action": 0,
    "reward": 3.6
  },
  {
    "phase": "TASK",
    "condition": "Cond3",
    "trial_num": 9,
    "trial_length": 7,
    "click_num": 5,
    "RT": 849,
    "action": 0,
    "reward": 3.6
  },
  {
    "phase": "TASK",
    "condition": "Cond3",
    "trial_num": 9,
    "trial_length": 7,
    "click_num": 6,
    "RT": 816,
    "action": 0,
    "reward": 3.6
  },
  {
    "phase": "TASK",
    "condition": "Cond3",
    "trial_num": 9,
    "trial_length": 7,
    "click_num": 7,
    "RT": 952,
    "action": 0,
    "reward": 3.6
  },
  {
    "phase": "TASK",
    "condition": "Cond3",
    "trial_num": 10,
    "trial_length": 7,
    "click_num": 1,
    "RT": 2055,
    "action": 1,
    "reward": 3.8
  },
  {
    "phase": "TASK",
    "condition": "Cond3",
    "trial_num": 10,
    "trial_length": 7,
    "click_num": 2,
    "RT": 1688,
    "action": 0,
    "reward": 3.8
  },
  {
    "phase": "TASK",
    "condition": "Cond3",
    "trial_num": 10,
    "trial_length": 7,
    "click_num": 3,
    "RT": 960,
    "action": 0,
    "reward": 3.8
  },
  {
    "phase": "TASK",
    "condition": "Cond3",
    "trial_num": 10,
    "trial_length": 7,
    "click_num": 4,
    "RT": 1536,
    "action": 0,
    "reward": 3.8
  },
  {
    "phase": "TASK",
    "condition": "Cond3",
    "trial_num": 10,
    "trial_length": 7,
    "click_num": 5,
    "RT": 1322,
    "action": 0,
    "reward": 3.8
  },
  {
    "phase": "TASK",
    "condition": "Cond3",
    "trial_num": 10,
    "trial_length": 7,
    "click_num": 6,
    "RT": 1135,
    "action": 0,
    "reward": 3.8
  },
  {
    "phase": "TASK",
    "condition": "Cond3",
    "trial_num": 10,
    "trial_length": 7,
    "click_num": 7,
    "RT": 1223,
    "action": 0,
    "reward": 3.8
  },
  {
    "phase": "TASK",
    "condition": "Cond3",
    "trial_num": 11,
    "trial_length": 10,
    "click_num": 1,
    "RT": 1348,
    "action": 1,
    "reward": 2.9
  },
  {
    "phase": "TASK",
    "condition": "Cond3",
    "trial_num": 11,
    "trial_length": 10,
    "click_num": 2,
    "RT": 2000,
    "action": 1,
    "reward": 3.9
  },
  {
    "phase": "TASK",
    "condition": "Cond3",
    "trial_num": 11,
    "trial_length": 10,
    "click_num": 3,
    "RT": 2328,
    "action": 0,
    "reward": 3.9
  },
  {
    "phase": "TASK",
    "condition": "Cond3",
    "trial_num": 11,
    "trial_length": 10,
    "click_num": 4,
    "RT": 927,
    "action": 0,
    "reward": 3.9
  },
  {
    "phase": "TASK",
    "condition": "Cond3",
    "trial_num": 11,
    "trial_length": 10,
    "click_num": 5,
    "RT": 834,
    "action": 0,
    "reward": 3.9
  },
  {
    "phase": "TASK",
    "condition": "Cond3",
    "trial_num": 11,
    "trial_length": 10,
    "click_num": 6,
    "RT": 1000,
    "action": 0,
    "reward": 3.9
  },
  {
    "phase": "TASK",
    "condition": "Cond3",
    "trial_num": 11,
    "trial_length": 10,
    "click_num": 7,
    "RT": 1230,
    "action": 0,
    "reward": 3.9
  },
  {
    "phase": "TASK",
    "condition": "Cond3",
    "trial_num": 11,
    "trial_length": 10,
    "click_num": 8,
    "RT": 785,
    "action": 0,
    "reward": 3.9
  },
  {
    "phase": "TASK",
    "condition": "Cond3",
    "trial_num": 11,
    "trial_length": 10,
    "click_num": 9,
    "RT": 912,
    "action": 0,
    "reward": 3.9
  },
  {
    "phase": "TASK",
    "condition": "Cond3",
    "trial_num": 11,
    "trial_length": 10,
    "click_num": 10,
    "RT": 1056,
    "action": 0,
    "reward": 3.9
  },
  {
    "phase": "TASK",
    "condition": "Cond3",
    "trial_num": 12,
    "trial_length": 5,
    "click_num": 1,
    "RT": 1318,
    "action": 1,
    "reward": 3.1
  },
  {
    "phase": "TASK",
    "condition": "Cond3",
    "trial_num": 12,
    "trial_length": 5,
    "click_num": 2,
    "RT": 1809,
    "action": 1,
    "reward": 3.3
  },
  {
    "phase": "TASK",
    "condition": "Cond3",
    "trial_num": 12,
    "trial_length": 5,
    "click_num": 3,
    "RT": 1561,
    "action": 1,
    "reward": 2.2
  },
  {
    "phase": "TASK",
    "condition": "Cond3",
    "trial_num": 12,
    "trial_length": 5,
    "click_num": 4,
    "RT": 1654,
    "action": 1,
    "reward": 2.9
  },
  {
    "phase": "TASK",
    "condition": "Cond3",
    "trial_num": 12,
    "trial_length": 5,
    "click_num": 5,
    "RT": 2600,
    "action": 1,
    "reward": 2.7
  },
  {
    "phase": "TASK",
    "condition": "Cond3",
    "trial_num": 13,
    "trial_length": 5,
    "click_num": 1,
    "RT": 1855,
    "action": 1,
    "reward": 3.3
  },
  {
    "phase": "TASK",
    "condition": "Cond3",
    "trial_num": 13,
    "trial_length": 5,
    "click_num": 2,
    "RT": 2400,
    "action": 1,
    "reward": 3.6
  },
  {
    "phase": "TASK",
    "condition": "Cond3",
    "trial_num": 13,
    "trial_length": 5,
    "click_num": 3,
    "RT": 1815,
    "action": 0,
    "reward": 3.6
  },
  {
    "phase": "TASK",
    "condition": "Cond3",
    "trial_num": 13,
    "trial_length": 5,
    "click_num": 4,
    "RT": 848,
    "action": 0,
    "reward": 3.6
  },
  {
    "phase": "TASK",
    "condition": "Cond3",
    "trial_num": 13,
    "trial_length": 5,
    "click_num": 5,
    "RT": 864,
    "action": 0,
    "reward": 3.6
  },
  {
    "phase": "TASK",
    "condition": "Cond3",
    "trial_num": 14,
    "trial_length": 8,
    "click_num": 1,
    "RT": 1533,
    "action": 1,
    "reward": 3.2
  },
  {
    "phase": "TASK",
    "condition": "Cond3",
    "trial_num": 14,
    "trial_length": 8,
    "click_num": 2,
    "RT": 2384,
    "action": 1,
    "reward": 2.4
  },
  {
    "phase": "TASK",
    "condition": "Cond3",
    "trial_num": 14,
    "trial_length": 8,
    "click_num": 3,
    "RT": 1280,
    "action": 1,
    "reward": 3.6
  },
  {
    "phase": "TASK",
    "condition": "Cond3",
    "trial_num": 14,
    "trial_length": 8,
    "click_num": 4,
    "RT": 1721,
    "action": 0,
    "reward": 3.6
  },
  {
    "phase": "TASK",
    "condition": "Cond3",
    "trial_num": 14,
    "trial_length": 8,
    "click_num": 5,
    "RT": 928,
    "action": 0,
    "reward": 3.6
  },
  {
    "phase": "TASK",
    "condition": "Cond3",
    "trial_num": 14,
    "trial_length": 8,
    "click_num": 6,
    "RT": 944,
    "action": 0,
    "reward": 3.6
  },
  {
    "phase": "TASK",
    "condition": "Cond3",
    "trial_num": 14,
    "trial_length": 8,
    "click_num": 7,
    "RT": 991,
    "action": 0,
    "reward": 3.6
  },
  {
    "phase": "TASK",
    "condition": "Cond3",
    "trial_num": 14,
    "trial_length": 8,
    "click_num": 8,
    "RT": 955,
    "action": 0,
    "reward": 3.6
  },
  {
    "phase": "TASK",
    "condition": "Cond3",
    "trial_num": 15,
    "trial_length": 8,
    "click_num": 1,
    "RT": 1491,
    "action": 1,
    "reward": 3.9
  },
  {
    "phase": "TASK",
    "condition": "Cond3",
    "trial_num": 15,
    "trial_length": 8,
    "click_num": 2,
    "RT": 1440,
    "action": 0,
    "reward": 3.9
  },
  {
    "phase": "TASK",
    "condition": "Cond3",
    "trial_num": 15,
    "trial_length": 8,
    "click_num": 3,
    "RT": 856,
    "action": 0,
    "reward": 3.9
  },
  {
    "phase": "TASK",
    "condition": "Cond3",
    "trial_num": 15,
    "trial_length": 8,
    "click_num": 4,
    "RT": 743,
    "action": 0,
    "reward": 3.9
  },
  {
    "phase": "TASK",
    "condition": "Cond3",
    "trial_num": 15,
    "trial_length": 8,
    "click_num": 5,
    "RT": 697,
    "action": 0,
    "reward": 3.9
  },
  {
    "phase": "TASK",
    "condition": "Cond3",
    "trial_num": 15,
    "trial_length": 8,
    "click_num": 6,
    "RT": 743,
    "action": 0,
    "reward": 3.9
  },
  {
    "phase": "TASK",
    "condition": "Cond3",
    "trial_num": 15,
    "trial_length": 8,
    "click_num": 7,
    "RT": 952,
    "action": 0,
    "reward": 3.9
  },
  {
    "phase": "TASK",
    "condition": "Cond3",
    "trial_num": 15,
    "trial_length": 8,
    "click_num": 8,
    "RT": 945,
    "action": 0,
    "reward": 3.9
  },
  {
    "phase": "TASK",
    "condition": "Cond3",
    "trial_num": 16,
    "trial_length": 9,
    "click_num": 1,
    "RT": 1798,
    "action": 1,
    "reward": 3.5
  },
  {
    "phase": "TASK",
    "condition": "Cond3",
    "trial_num": 16,
    "trial_length": 9,
    "click_num": 2,
    "RT": 2008,
    "action": 1,
    "reward": 3.1
  },
  {
    "phase": "TASK",
    "condition": "Cond3",
    "trial_num": 16,
    "trial_length": 9,
    "click_num": 3,
    "RT": 1201,
    "action": 1,
    "reward": 2.6
  },
  {
    "phase": "TASK",
    "condition": "Cond3",
    "trial_num": 16,
    "trial_length": 9,
    "click_num": 4,
    "RT": 1255,
    "action": 1,
    "reward": 2.9
  },
  {
    "phase": "TASK",
    "condition": "Cond3",
    "trial_num": 16,
    "trial_length": 9,
    "click_num": 5,
    "RT": 1387,
    "action": 1,
    "reward": 2.6
  },
  {
    "phase": "TASK",
    "condition": "Cond3",
    "trial_num": 16,
    "trial_length": 9,
    "click_num": 6,
    "RT": 2630,
    "action": 1,
    "reward": 3
  },
  {
    "phase": "TASK",
    "condition": "Cond3",
    "trial_num": 16,
    "trial_length": 9,
    "click_num": 7,
    "RT": 1671,
    "action": 1,
    "reward": 3.1
  },
  {
    "phase": "TASK",
    "condition": "Cond3",
    "trial_num": 16,
    "trial_length": 9,
    "click_num": 8,
    "RT": 1577,
    "action": 1,
    "reward": 3.5
  },
  {
    "phase": "TASK",
    "condition": "Cond3",
    "trial_num": 16,
    "trial_length": 9,
    "click_num": 9,
    "RT": 2991,
    "action": 0,
    "reward": 3.5
  },
  {
    "phase": "TASK",
    "condition": "Cond3",
    "trial_num": 17,
    "trial_length": 5,
    "click_num": 1,
    "RT": 1260,
    "action": 1,
    "reward": 2.9
  },
  {
    "phase": "TASK",
    "condition": "Cond3",
    "trial_num": 17,
    "trial_length": 5,
    "click_num": 2,
    "RT": 1860,
    "action": 1,
    "reward": 3.5
  },
  {
    "phase": "TASK",
    "condition": "Cond3",
    "trial_num": 17,
    "trial_length": 5,
    "click_num": 3,
    "RT": 2493,
    "action": 0,
    "reward": 3.5
  },
  {
    "phase": "TASK",
    "condition": "Cond3",
    "trial_num": 17,
    "trial_length": 5,
    "click_num": 4,
    "RT": 882,
    "action": 0,
    "reward": 3.5
  },
  {
    "phase": "TASK",
    "condition": "Cond3",
    "trial_num": 17,
    "trial_length": 5,
    "click_num": 5,
    "RT": 1182,
    "action": 0,
    "reward": 3.5
  },
  {
    "phase": "TASK",
    "condition": "Cond3",
    "trial_num": 18,
    "trial_length": 7,
    "click_num": 1,
    "RT": 3974,
    "action": 1,
    "reward": 3.4
  },
  {
    "phase": "TASK",
    "condition": "Cond3",
    "trial_num": 18,
    "trial_length": 7,
    "click_num": 2,
    "RT": 1720,
    "action": 1,
    "reward": 2.3
  },
  {
    "phase": "TASK",
    "condition": "Cond3",
    "trial_num": 18,
    "trial_length": 7,
    "click_num": 3,
    "RT": 1248,
    "action": 1,
    "reward": 2.9
  },
  {
    "phase": "TASK",
    "condition": "Cond3",
    "trial_num": 18,
    "trial_length": 7,
    "click_num": 4,
    "RT": 1233,
    "action": 1,
    "reward": 3.5
  },
  {
    "phase": "TASK",
    "condition": "Cond3",
    "trial_num": 18,
    "trial_length": 7,
    "click_num": 5,
    "RT": 1543,
    "action": 0,
    "reward": 3.5
  },
  {
    "phase": "TASK",
    "condition": "Cond3",
    "trial_num": 18,
    "trial_length": 7,
    "click_num": 6,
    "RT": 1035,
    "action": 0,
    "reward": 3.5
  },
  {
    "phase": "TASK",
    "condition": "Cond3",
    "trial_num": 18,
    "trial_length": 7,
    "click_num": 7,
    "RT": 797,
    "action": 0,
    "reward": 3.5
  },
  {
    "phase": "TASK",
    "condition": "Cond3",
    "trial_num": 19,
    "trial_length": 10,
    "click_num": 1,
    "RT": 1143,
    "action": 1,
    "reward": 2.6
  },
  {
    "phase": "TASK",
    "condition": "Cond3",
    "trial_num": 19,
    "trial_length": 10,
    "click_num": 2,
    "RT": 1838,
    "action": 1,
    "reward": 3.3
  },
  {
    "phase": "TASK",
    "condition": "Cond3",
    "trial_num": 19,
    "trial_length": 10,
    "click_num": 3,
    "RT": 1212,
    "action": 1,
    "reward": 2.4
  },
  {
    "phase": "TASK",
    "condition": "Cond3",
    "trial_num": 19,
    "trial_length": 10,
    "click_num": 4,
    "RT": 1710,
    "action": 1,
    "reward": 3.8
  },
  {
    "phase": "TASK",
    "condition": "Cond3",
    "trial_num": 19,
    "trial_length": 10,
    "click_num": 5,
    "RT": 1335,
    "action": 0,
    "reward": 3.8
  },
  {
    "phase": "TASK",
    "condition": "Cond3",
    "trial_num": 19,
    "trial_length": 10,
    "click_num": 6,
    "RT": 802,
    "action": 0,
    "reward": 3.8
  },
  {
    "phase": "TASK",
    "condition": "Cond3",
    "trial_num": 19,
    "trial_length": 10,
    "click_num": 7,
    "RT": 838,
    "action": 0,
    "reward": 3.8
  },
  {
    "phase": "TASK",
    "condition": "Cond3",
    "trial_num": 19,
    "trial_length": 10,
    "click_num": 8,
    "RT": 899,
    "action": 0,
    "reward": 3.8
  },
  {
    "phase": "TASK",
    "condition": "Cond3",
    "trial_num": 19,
    "trial_length": 10,
    "click_num": 9,
    "RT": 853,
    "action": 0,
    "reward": 3.8
  },
  {
    "phase": "TASK",
    "condition": "Cond3",
    "trial_num": 19,
    "trial_length": 10,
    "click_num": 10,
    "RT": 810,
    "action": 0,
    "reward": 3.8
  },
  {
    "phase": "TASK",
    "condition": "Cond3",
    "trial_num": 20,
    "trial_length": 6,
    "click_num": 1,
    "RT": 1428,
    "action": 1,
    "reward": 3
  },
  {
    "phase": "TASK",
    "condition": "Cond3",
    "trial_num": 20,
    "trial_length": 6,
    "click_num": 2,
    "RT": 1392,
    "action": 1,
    "reward": 3.2
  },
  {
    "phase": "TASK",
    "condition": "Cond3",
    "trial_num": 20,
    "trial_length": 6,
    "click_num": 3,
    "RT": 1231,
    "action": 1,
    "reward": 2.6
  },
  {
    "phase": "TASK",
    "condition": "Cond3",
    "trial_num": 20,
    "trial_length": 6,
    "click_num": 4,
    "RT": 1096,
    "action": 1,
    "reward": 2.5
  },
  {
    "phase": "TASK",
    "condition": "Cond3",
    "trial_num": 20,
    "trial_length": 6,
    "click_num": 5,
    "RT": 1241,
    "action": 1,
    "reward": 3.7
  },
  {
    "phase": "TASK",
    "condition": "Cond3",
    "trial_num": 20,
    "trial_length": 6,
    "click_num": 6,
    "RT": 1247,
    "action": 0,
    "reward": 3.7
  },
  {
    "phase": "TASK",
    "condition": "Cond3",
    "trial_num": 21,
    "trial_length": 6,
    "click_num": 1,
    "RT": 1695,
    "action": 1,
    "reward": 3.3
  },
  {
    "phase": "TASK",
    "condition": "Cond3",
    "trial_num": 21,
    "trial_length": 6,
    "click_num": 2,
    "RT": 1706,
    "action": 1,
    "reward": 3.6
  },
  {
    "phase": "TASK",
    "condition": "Cond3",
    "trial_num": 21,
    "trial_length": 6,
    "click_num": 3,
    "RT": 1226,
    "action": 0,
    "reward": 3.6
  },
  {
    "phase": "TASK",
    "condition": "Cond3",
    "trial_num": 21,
    "trial_length": 6,
    "click_num": 4,
    "RT": 820,
    "action": 0,
    "reward": 3.6
  },
  {
    "phase": "TASK",
    "condition": "Cond3",
    "trial_num": 21,
    "trial_length": 6,
    "click_num": 5,
    "RT": 666,
    "action": 0,
    "reward": 3.6
  },
  {
    "phase": "TASK",
    "condition": "Cond3",
    "trial_num": 21,
    "trial_length": 6,
    "click_num": 6,
    "RT": 1213,
    "action": 0,
    "reward": 3.6
  },
  {
    "phase": "TASK",
    "condition": "Cond3",
    "trial_num": 22,
    "trial_length": 10,
    "click_num": 1,
    "RT": 1213,
    "action": 1,
    "reward": 3.8
  },
  {
    "phase": "TASK",
    "condition": "Cond3",
    "trial_num": 22,
    "trial_length": 10,
    "click_num": 2,
    "RT": 1193,
    "action": 0,
    "reward": 3.8
  },
  {
    "phase": "TASK",
    "condition": "Cond3",
    "trial_num": 22,
    "trial_length": 10,
    "click_num": 3,
    "RT": 703,
    "action": 0,
    "reward": 3.8
  },
  {
    "phase": "TASK",
    "condition": "Cond3",
    "trial_num": 22,
    "trial_length": 10,
    "click_num": 4,
    "RT": 731,
    "action": 0,
    "reward": 3.8
  },
  {
    "phase": "TASK",
    "condition": "Cond3",
    "trial_num": 22,
    "trial_length": 10,
    "click_num": 5,
    "RT": 654,
    "action": 0,
    "reward": 3.8
  },
  {
    "phase": "TASK",
    "condition": "Cond3",
    "trial_num": 22,
    "trial_length": 10,
    "click_num": 6,
    "RT": 616,
    "action": 0,
    "reward": 3.8
  },
  {
    "phase": "TASK",
    "condition": "Cond3",
    "trial_num": 22,
    "trial_length": 10,
    "click_num": 7,
    "RT": 648,
    "action": 0,
    "reward": 3.8
  },
  {
    "phase": "TASK",
    "condition": "Cond3",
    "trial_num": 22,
    "trial_length": 10,
    "click_num": 8,
    "RT": 666,
    "action": 0,
    "reward": 3.8
  },
  {
    "phase": "TASK",
    "condition": "Cond3",
    "trial_num": 22,
    "trial_length": 10,
    "click_num": 9,
    "RT": 678,
    "action": 0,
    "reward": 3.8
  },
  {
    "phase": "TASK",
    "condition": "Cond3",
    "trial_num": 22,
    "trial_length": 10,
    "click_num": 10,
    "RT": 682,
    "action": 0,
    "reward": 3.8
  },
  {
    "phase": "TASK",
    "condition": "Cond3",
    "trial_num": 23,
    "trial_length": 9,
    "click_num": 1,
    "RT": 3519,
    "action": 1,
    "reward": 2.9
  },
  {
    "phase": "TASK",
    "condition": "Cond3",
    "trial_num": 23,
    "trial_length": 9,
    "click_num": 2,
    "RT": 1407,
    "action": 1,
    "reward": 3.1
  },
  {
    "phase": "TASK",
    "condition": "Cond3",
    "trial_num": 23,
    "trial_length": 9,
    "click_num": 3,
    "RT": 1536,
    "action": 1,
    "reward": 2.5
  },
  {
    "phase": "TASK",
    "condition": "Cond3",
    "trial_num": 23,
    "trial_length": 9,
    "click_num": 4,
    "RT": 1103,
    "action": 1,
    "reward": 2.5
  },
  {
    "phase": "TASK",
    "condition": "Cond3",
    "trial_num": 23,
    "trial_length": 9,
    "click_num": 5,
    "RT": 1073,
    "action": 1,
    "reward": 2.7
  },
  {
    "phase": "TASK",
    "condition": "Cond3",
    "trial_num": 23,
    "trial_length": 9,
    "click_num": 6,
    "RT": 1040,
    "action": 1,
    "reward": 3
  },
  {
    "phase": "TASK",
    "condition": "Cond3",
    "trial_num": 23,
    "trial_length": 9,
    "click_num": 7,
    "RT": 1087,
    "action": 1,
    "reward": 3.6
  },
  {
    "phase": "TASK",
    "condition": "Cond3",
    "trial_num": 23,
    "trial_length": 9,
    "click_num": 8,
    "RT": 1399,
    "action": 0,
    "reward": 3.6
  },
  {
    "phase": "TASK",
    "condition": "Cond3",
    "trial_num": 23,
    "trial_length": 9,
    "click_num": 9,
    "RT": 769,
    "action": 0,
    "reward": 3.6
  },
  {
    "phase": "TASK",
    "condition": "Cond3",
    "trial_num": 24,
    "trial_length": 6,
    "click_num": 1,
    "RT": 1563,
    "action": 1,
    "reward": 2.6
  },
  {
    "phase": "TASK",
    "condition": "Cond3",
    "trial_num": 24,
    "trial_length": 6,
    "click_num": 2,
    "RT": 1164,
    "action": 1,
    "reward": 2.7
  },
  {
    "phase": "TASK",
    "condition": "Cond3",
    "trial_num": 24,
    "trial_length": 6,
    "click_num": 3,
    "RT": 1546,
    "action": 1,
    "reward": 2.9
  },
  {
    "phase": "TASK",
    "condition": "Cond3",
    "trial_num": 24,
    "trial_length": 6,
    "click_num": 4,
    "RT": 1373,
    "action": 1,
    "reward": 2.9
  },
  {
    "phase": "TASK",
    "condition": "Cond3",
    "trial_num": 24,
    "trial_length": 6,
    "click_num": 5,
    "RT": 1365,
    "action": 1,
    "reward": 2.8
  },
  {
    "phase": "TASK",
    "condition": "Cond3",
    "trial_num": 24,
    "trial_length": 6,
    "click_num": 6,
    "RT": 1298,
    "action": 1,
    "reward": 4
  },
  {
    "phase": "TASK",
    "condition": "Cond3",
    "trial_num": 25,
    "trial_length": 6,
    "click_num": 1,
    "RT": 1441,
    "action": 1,
    "reward": 2.4
  },
  {
    "phase": "TASK",
    "condition": "Cond3",
    "trial_num": 25,
    "trial_length": 6,
    "click_num": 2,
    "RT": 1542,
    "action": 1,
    "reward": 3
  },
  {
    "phase": "TASK",
    "condition": "Cond3",
    "trial_num": 25,
    "trial_length": 6,
    "click_num": 3,
    "RT": 1479,
    "action": 1,
    "reward": 3.2
  },
  {
    "phase": "TASK",
    "condition": "Cond3",
    "trial_num": 25,
    "trial_length": 6,
    "click_num": 4,
    "RT": 1395,
    "action": 1,
    "reward": 2.4
  },
  {
    "phase": "TASK",
    "condition": "Cond3",
    "trial_num": 25,
    "trial_length": 6,
    "click_num": 5,
    "RT": 1805,
    "action": 1,
    "reward": 2.9
  },
  {
    "phase": "TASK",
    "condition": "Cond3",
    "trial_num": 25,
    "trial_length": 6,
    "click_num": 6,
    "RT": 1096,
    "action": 1,
    "reward": 3
  },
  {
    "phase": "TASK",
    "condition": "Cond3",
    "trial_num": 26,
    "trial_length": 5,
    "click_num": 1,
    "RT": 1269,
    "action": 1,
    "reward": 3.3
  },
  {
    "phase": "TASK",
    "condition": "Cond3",
    "trial_num": 26,
    "trial_length": 5,
    "click_num": 2,
    "RT": 2096,
    "action": 1,
    "reward": 2.2
  },
  {
    "phase": "TASK",
    "condition": "Cond3",
    "trial_num": 26,
    "trial_length": 5,
    "click_num": 3,
    "RT": 1225,
    "action": 1,
    "reward": 3.9
  },
  {
    "phase": "TASK",
    "condition": "Cond3",
    "trial_num": 26,
    "trial_length": 5,
    "click_num": 4,
    "RT": 1442,
    "action": 0,
    "reward": 3.9
  },
  {
    "phase": "TASK",
    "condition": "Cond3",
    "trial_num": 26,
    "trial_length": 5,
    "click_num": 5,
    "RT": 893,
    "action": 0,
    "reward": 3.9
  },
  {
    "phase": "TASK",
    "condition": "Cond3",
    "trial_num": 27,
    "trial_length": 10,
    "click_num": 1,
    "RT": 2193,
    "action": 1,
    "reward": 2.7
  },
  {
    "phase": "TASK",
    "condition": "Cond3",
    "trial_num": 27,
    "trial_length": 10,
    "click_num": 2,
    "RT": 1376,
    "action": 1,
    "reward": 2.2
  },
  {
    "phase": "TASK",
    "condition": "Cond3",
    "trial_num": 27,
    "trial_length": 10,
    "click_num": 3,
    "RT": 1252,
    "action": 1,
    "reward": 3.1
  },
  {
    "phase": "TASK",
    "condition": "Cond3",
    "trial_num": 27,
    "trial_length": 10,
    "click_num": 4,
    "RT": 3621,
    "action": 1,
    "reward": 2.8
  },
  {
    "phase": "TASK",
    "condition": "Cond3",
    "trial_num": 27,
    "trial_length": 10,
    "click_num": 5,
    "RT": 1906,
    "action": 1,
    "reward": 3.7
  },
  {
    "phase": "TASK",
    "condition": "Cond3",
    "trial_num": 27,
    "trial_length": 10,
    "click_num": 6,
    "RT": 1166,
    "action": 0,
    "reward": 3.7
  },
  {
    "phase": "TASK",
    "condition": "Cond3",
    "trial_num": 27,
    "trial_length": 10,
    "click_num": 7,
    "RT": 840,
    "action": 0,
    "reward": 3.7
  },
  {
    "phase": "TASK",
    "condition": "Cond3",
    "trial_num": 27,
    "trial_length": 10,
    "click_num": 8,
    "RT": 863,
    "action": 0,
    "reward": 3.7
  },
  {
    "phase": "TASK",
    "condition": "Cond3",
    "trial_num": 27,
    "trial_length": 10,
    "click_num": 9,
    "RT": 719,
    "action": 0,
    "reward": 3.7
  },
  {
    "phase": "TASK",
    "condition": "Cond3",
    "trial_num": 27,
    "trial_length": 10,
    "click_num": 10,
    "RT": 1297,
    "action": 0,
    "reward": 3.7
  },
  {
    "phase": "TASK",
    "condition": "Cond3",
    "trial_num": 28,
    "trial_length": 8,
    "click_num": 1,
    "RT": 3917,
    "action": 1,
    "reward": 3.6
  },
  {
    "phase": "TASK",
    "condition": "Cond3",
    "trial_num": 28,
    "trial_length": 8,
    "click_num": 2,
    "RT": 2293,
    "action": 0,
    "reward": 3.6
  },
  {
    "phase": "TASK",
    "condition": "Cond3",
    "trial_num": 28,
    "trial_length": 8,
    "click_num": 3,
    "RT": 2120,
    "action": 0,
    "reward": 3.6
  },
  {
    "phase": "TASK",
    "condition": "Cond3",
    "trial_num": 28,
    "trial_length": 8,
    "click_num": 4,
    "RT": 1078,
    "action": 0,
    "reward": 3.6
  },
  {
    "phase": "TASK",
    "condition": "Cond3",
    "trial_num": 28,
    "trial_length": 8,
    "click_num": 5,
    "RT": 724,
    "action": 0,
    "reward": 3.6
  },
  {
    "phase": "TASK",
    "condition": "Cond3",
    "trial_num": 28,
    "trial_length": 8,
    "click_num": 6,
    "RT": 998,
    "action": 0,
    "reward": 3.6
  },
  {
    "phase": "TASK",
    "condition": "Cond3",
    "trial_num": 28,
    "trial_length": 8,
    "click_num": 7,
    "RT": 815,
    "action": 0,
    "reward": 3.6
  },
  {
    "phase": "TASK",
    "condition": "Cond3",
    "trial_num": 28,
    "trial_length": 8,
    "click_num": 8,
    "RT": 865,
    "action": 0,
    "reward": 3.6
  },
  {
    "phase": "TASK",
    "condition": "Cond3",
    "trial_num": 29,
    "trial_length": 10,
    "click_num": 1,
    "RT": 1247,
    "action": 1,
    "reward": 1.8
  },
  {
    "phase": "TASK",
    "condition": "Cond3",
    "trial_num": 29,
    "trial_length": 10,
    "click_num": 2,
    "RT": 1687,
    "action": 1,
    "reward": 2.6
  },
  {
    "phase": "TASK",
    "condition": "Cond3",
    "trial_num": 29,
    "trial_length": 10,
    "click_num": 3,
    "RT": 1322,
    "action": 1,
    "reward": 2.7
  },
  {
    "phase": "TASK",
    "condition": "Cond3",
    "trial_num": 29,
    "trial_length": 10,
    "click_num": 4,
    "RT": 1637,
    "action": 1,
    "reward": 2.4
  },
  {
    "phase": "TASK",
    "condition": "Cond3",
    "trial_num": 29,
    "trial_length": 10,
    "click_num": 5,
    "RT": 1489,
    "action": 1,
    "reward": 3.9
  },
  {
    "phase": "TASK",
    "condition": "Cond3",
    "trial_num": 29,
    "trial_length": 10,
    "click_num": 6,
    "RT": 1144,
    "action": 0,
    "reward": 3.9
  },
  {
    "phase": "TASK",
    "condition": "Cond3",
    "trial_num": 29,
    "trial_length": 10,
    "click_num": 7,
    "RT": 687,
    "action": 0,
    "reward": 3.9
  },
  {
    "phase": "TASK",
    "condition": "Cond3",
    "trial_num": 29,
    "trial_length": 10,
    "click_num": 8,
    "RT": 856,
    "action": 0,
    "reward": 3.9
  },
  {
    "phase": "TASK",
    "condition": "Cond3",
    "trial_num": 29,
    "trial_length": 10,
    "click_num": 9,
    "RT": 708,
    "action": 0,
    "reward": 3.9
  },
  {
    "phase": "TASK",
    "condition": "Cond3",
    "trial_num": 29,
    "trial_length": 10,
    "click_num": 10,
    "RT": 1445,
    "action": 0,
    "reward": 3.9
  },
  {
    "phase": "TASK",
    "condition": "Cond3",
    "trial_num": 30,
    "trial_length": 7,
    "click_num": 1,
    "RT": 1252,
    "action": 1,
    "reward": 3.2
  },
  {
    "phase": "TASK",
    "condition": "Cond3",
    "trial_num": 30,
    "trial_length": 7,
    "click_num": 2,
    "RT": 1513,
    "action": 1,
    "reward": 2.4
  },
  {
    "phase": "TASK",
    "condition": "Cond3",
    "trial_num": 30,
    "trial_length": 7,
    "click_num": 3,
    "RT": 1103,
    "action": 1,
    "reward": 3.5
  },
  {
    "phase": "TASK",
    "condition": "Cond3",
    "trial_num": 30,
    "trial_length": 7,
    "click_num": 4,
    "RT": 1392,
    "action": 0,
    "reward": 3.5
  },
  {
    "phase": "TASK",
    "condition": "Cond3",
    "trial_num": 30,
    "trial_length": 7,
    "click_num": 5,
    "RT": 807,
    "action": 0,
    "reward": 3.5
  },
  {
    "phase": "TASK",
    "condition": "Cond3",
    "trial_num": 30,
    "trial_length": 7,
    "click_num": 6,
    "RT": 702,
    "action": 0,
    "reward": 3.5
  },
  {
    "phase": "TASK",
    "condition": "Cond3",
    "trial_num": 30,
    "trial_length": 7,
    "click_num": 7,
    "RT": 763,
    "action": 0,
    "reward": 3.5
  },
  {
    "phase": "TASK",
    "condition": "Cond3",
    "trial_num": 31,
    "trial_length": 5,
    "click_num": 1,
    "RT": 1161,
    "action": 1,
    "reward": 3.9
  },
  {
    "phase": "TASK",
    "condition": "Cond3",
    "trial_num": 31,
    "trial_length": 5,
    "click_num": 2,
    "RT": 1190,
    "action": 0,
    "reward": 3.9
  },
  {
    "phase": "TASK",
    "condition": "Cond3",
    "trial_num": 31,
    "trial_length": 5,
    "click_num": 3,
    "RT": 647,
    "action": 0,
    "reward": 3.9
  },
  {
    "phase": "TASK",
    "condition": "Cond3",
    "trial_num": 31,
    "trial_length": 5,
    "click_num": 4,
    "RT": 666,
    "action": 0,
    "reward": 3.9
  },
  {
    "phase": "TASK",
    "condition": "Cond3",
    "trial_num": 31,
    "trial_length": 5,
    "click_num": 5,
    "RT": 841,
    "action": 0,
    "reward": 3.9
  },
  {
    "phase": "TASK",
    "condition": "Cond3",
    "trial_num": 32,
    "trial_length": 6,
    "click_num": 1,
    "RT": 1109,
    "action": 1,
    "reward": 4.1
  },
  {
    "phase": "TASK",
    "condition": "Cond3",
    "trial_num": 32,
    "trial_length": 6,
    "click_num": 2,
    "RT": 1185,
    "action": 0,
    "reward": 4.1
  },
  {
    "phase": "TASK",
    "condition": "Cond3",
    "trial_num": 32,
    "trial_length": 6,
    "click_num": 3,
    "RT": 1317,
    "action": 0,
    "reward": 4.1
  },
  {
    "phase": "TASK",
    "condition": "Cond3",
    "trial_num": 32,
    "trial_length": 6,
    "click_num": 4,
    "RT": 610,
    "action": 0,
    "reward": 4.1
  },
  {
    "phase": "TASK",
    "condition": "Cond3",
    "trial_num": 32,
    "trial_length": 6,
    "click_num": 5,
    "RT": 632,
    "action": 0,
    "reward": 4.1
  },
  {
    "phase": "TASK",
    "condition": "Cond3",
    "trial_num": 32,
    "trial_length": 6,
    "click_num": 6,
    "RT": 632,
    "action": 0,
    "reward": 4.1
  },
  {
    "phase": "TASK",
    "condition": "Cond3",
    "trial_num": 33,
    "trial_length": 6,
    "click_num": 1,
    "RT": 1256,
    "action": 1,
    "reward": 3
  },
  {
    "phase": "TASK",
    "condition": "Cond3",
    "trial_num": 33,
    "trial_length": 6,
    "click_num": 2,
    "RT": 2064,
    "action": 1,
    "reward": 3.3
  },
  {
    "phase": "TASK",
    "condition": "Cond3",
    "trial_num": 33,
    "trial_length": 6,
    "click_num": 3,
    "RT": 1842,
    "action": 1,
    "reward": 3.4
  },
  {
    "phase": "TASK",
    "condition": "Cond3",
    "trial_num": 33,
    "trial_length": 6,
    "click_num": 4,
    "RT": 3622,
    "action": 0,
    "reward": 3.4
  },
  {
    "phase": "TASK",
    "condition": "Cond3",
    "trial_num": 33,
    "trial_length": 6,
    "click_num": 5,
    "RT": 696,
    "action": 0,
    "reward": 3.4
  },
  {
    "phase": "TASK",
    "condition": "Cond3",
    "trial_num": 33,
    "trial_length": 6,
    "click_num": 6,
    "RT": 755,
    "action": 0,
    "reward": 3.4
  },
  {
    "phase": "TASK",
    "condition": "Cond3",
    "trial_num": 34,
    "trial_length": 9,
    "click_num": 1,
    "RT": 1446,
    "action": 1,
    "reward": 2.8
  },
  {
    "phase": "TASK",
    "condition": "Cond3",
    "trial_num": 34,
    "trial_length": 9,
    "click_num": 2,
    "RT": 1259,
    "action": 1,
    "reward": 3.6
  },
  {
    "phase": "TASK",
    "condition": "Cond3",
    "trial_num": 34,
    "trial_length": 9,
    "click_num": 3,
    "RT": 1221,
    "action": 0,
    "reward": 3.6
  },
  {
    "phase": "TASK",
    "condition": "Cond3",
    "trial_num": 34,
    "trial_length": 9,
    "click_num": 4,
    "RT": 2230,
    "action": 0,
    "reward": 3.6
  },
  {
    "phase": "TASK",
    "condition": "Cond3",
    "trial_num": 34,
    "trial_length": 9,
    "click_num": 5,
    "RT": 802,
    "action": 0,
    "reward": 3.6
  },
  {
    "phase": "TASK",
    "condition": "Cond3",
    "trial_num": 34,
    "trial_length": 9,
    "click_num": 6,
    "RT": 1683,
    "action": 0,
    "reward": 3.6
  },
  {
    "phase": "TASK",
    "condition": "Cond3",
    "trial_num": 34,
    "trial_length": 9,
    "click_num": 7,
    "RT": 990,
    "action": 0,
    "reward": 3.6
  },
  {
    "phase": "TASK",
    "condition": "Cond3",
    "trial_num": 34,
    "trial_length": 9,
    "click_num": 8,
    "RT": 1025,
    "action": 0,
    "reward": 3.6
  },
  {
    "phase": "TASK",
    "condition": "Cond3",
    "trial_num": 34,
    "trial_length": 9,
    "click_num": 9,
    "RT": 766,
    "action": 0,
    "reward": 3.6
  },
  {
    "phase": "TASK",
    "condition": "Cond3",
    "trial_num": 35,
    "trial_length": 10,
    "click_num": 1,
    "RT": 2190,
    "action": 1,
    "reward": 4.2
  },
  {
    "phase": "TASK",
    "condition": "Cond3",
    "trial_num": 35,
    "trial_length": 10,
    "click_num": 2,
    "RT": 1375,
    "action": 0,
    "reward": 4.2
  },
  {
    "phase": "TASK",
    "condition": "Cond3",
    "trial_num": 35,
    "trial_length": 10,
    "click_num": 3,
    "RT": 745,
    "action": 0,
    "reward": 4.2
  },
  {
    "phase": "TASK",
    "condition": "Cond3",
    "trial_num": 35,
    "trial_length": 10,
    "click_num": 4,
    "RT": 639,
    "action": 0,
    "reward": 4.2
  },
  {
    "phase": "TASK",
    "condition": "Cond3",
    "trial_num": 35,
    "trial_length": 10,
    "click_num": 5,
    "RT": 672,
    "action": 0,
    "reward": 4.2
  },
  {
    "phase": "TASK",
    "condition": "Cond3",
    "trial_num": 35,
    "trial_length": 10,
    "click_num": 6,
    "RT": 689,
    "action": 0,
    "reward": 4.2
  },
  {
    "phase": "TASK",
    "condition": "Cond3",
    "trial_num": 35,
    "trial_length": 10,
    "click_num": 7,
    "RT": 664,
    "action": 0,
    "reward": 4.2
  },
  {
    "phase": "TASK",
    "condition": "Cond3",
    "trial_num": 35,
    "trial_length": 10,
    "click_num": 8,
    "RT": 647,
    "action": 0,
    "reward": 4.2
  },
  {
    "phase": "TASK",
    "condition": "Cond3",
    "trial_num": 35,
    "trial_length": 10,
    "click_num": 9,
    "RT": 672,
    "action": 0,
    "reward": 4.2
  },
  {
    "phase": "TASK",
    "condition": "Cond3",
    "trial_num": 35,
    "trial_length": 10,
    "click_num": 10,
    "RT": 687,
    "action": 0,
    "reward": 4.2
  },
  {
    "phase": "TASK",
    "condition": "Cond3",
    "trial_num": 36,
    "trial_length": 6,
    "click_num": 1,
    "RT": 1284,
    "action": 1,
    "reward": 3.7
  },
  {
    "phase": "TASK",
    "condition": "Cond3",
    "trial_num": 36,
    "trial_length": 6,
    "click_num": 2,
    "RT": 1175,
    "action": 0,
    "reward": 3.7
  },
  {
    "phase": "TASK",
    "condition": "Cond3",
    "trial_num": 36,
    "trial_length": 6,
    "click_num": 3,
    "RT": 640,
    "action": 0,
    "reward": 3.7
  },
  {
    "phase": "TASK",
    "condition": "Cond3",
    "trial_num": 36,
    "trial_length": 6,
    "click_num": 4,
    "RT": 640,
    "action": 0,
    "reward": 3.7
  },
  {
    "phase": "TASK",
    "condition": "Cond3",
    "trial_num": 36,
    "trial_length": 6,
    "click_num": 5,
    "RT": 688,
    "action": 0,
    "reward": 3.7
  },
  {
    "phase": "TASK",
    "condition": "Cond3",
    "trial_num": 36,
    "trial_length": 6,
    "click_num": 6,
    "RT": 672,
    "action": 0,
    "reward": 3.7
  },
  {
    "phase": "TASK",
    "condition": "Cond3",
    "trial_num": 37,
    "trial_length": 7,
    "click_num": 1,
    "RT": 1768,
    "action": 1,
    "reward": 2.7
  },
  {
    "phase": "TASK",
    "condition": "Cond3",
    "trial_num": 37,
    "trial_length": 7,
    "click_num": 2,
    "RT": 1200,
    "action": 1,
    "reward": 3.3
  },
  {
    "phase": "TASK",
    "condition": "Cond3",
    "trial_num": 37,
    "trial_length": 7,
    "click_num": 3,
    "RT": 1787,
    "action": 1,
    "reward": 3.3
  },
  {
    "phase": "TASK",
    "condition": "Cond3",
    "trial_num": 37,
    "trial_length": 7,
    "click_num": 4,
    "RT": 1853,
    "action": 1,
    "reward": 3.4
  },
  {
    "phase": "TASK",
    "condition": "Cond3",
    "trial_num": 37,
    "trial_length": 7,
    "click_num": 5,
    "RT": 2208,
    "action": 0,
    "reward": 3.4
  },
  {
    "phase": "TASK",
    "condition": "Cond3",
    "trial_num": 37,
    "trial_length": 7,
    "click_num": 6,
    "RT": 1056,
    "action": 0,
    "reward": 3.4
  },
  {
    "phase": "TASK",
    "condition": "Cond3",
    "trial_num": 37,
    "trial_length": 7,
    "click_num": 7,
    "RT": 1170,
    "action": 0,
    "reward": 3.4
  },
  {
    "phase": "TASK",
    "condition": "Cond3",
    "trial_num": 38,
    "trial_length": 5,
    "click_num": 1,
    "RT": 1316,
    "action": 1,
    "reward": 3.5
  },
  {
    "phase": "TASK",
    "condition": "Cond3",
    "trial_num": 38,
    "trial_length": 5,
    "click_num": 2,
    "RT": 1737,
    "action": 0,
    "reward": 3.5
  },
  {
    "phase": "TASK",
    "condition": "Cond3",
    "trial_num": 38,
    "trial_length": 5,
    "click_num": 3,
    "RT": 711,
    "action": 0,
    "reward": 3.5
  },
  {
    "phase": "TASK",
    "condition": "Cond3",
    "trial_num": 38,
    "trial_length": 5,
    "click_num": 4,
    "RT": 673,
    "action": 0,
    "reward": 3.5
  },
  {
    "phase": "TASK",
    "condition": "Cond3",
    "trial_num": 38,
    "trial_length": 5,
    "click_num": 5,
    "RT": 761,
    "action": 0,
    "reward": 3.5
  },
  {
    "phase": "TASK",
    "condition": "Cond3",
    "trial_num": 39,
    "trial_length": 10,
    "click_num": 1,
    "RT": 1646,
    "action": 1,
    "reward": 3.2
  },
  {
    "phase": "TASK",
    "condition": "Cond3",
    "trial_num": 39,
    "trial_length": 10,
    "click_num": 2,
    "RT": 1504,
    "action": 1,
    "reward": 3
  },
  {
    "phase": "TASK",
    "condition": "Cond3",
    "trial_num": 39,
    "trial_length": 10,
    "click_num": 3,
    "RT": 1063,
    "action": 1,
    "reward": 2.8
  },
  {
    "phase": "TASK",
    "condition": "Cond3",
    "trial_num": 39,
    "trial_length": 10,
    "click_num": 4,
    "RT": 1209,
    "action": 1,
    "reward": 2.5
  },
  {
    "phase": "TASK",
    "condition": "Cond3",
    "trial_num": 39,
    "trial_length": 10,
    "click_num": 5,
    "RT": 1176,
    "action": 1,
    "reward": 2.6
  },
  {
    "phase": "TASK",
    "condition": "Cond3",
    "trial_num": 39,
    "trial_length": 10,
    "click_num": 6,
    "RT": 1199,
    "action": 1,
    "reward": 3
  },
  {
    "phase": "TASK",
    "condition": "Cond3",
    "trial_num": 39,
    "trial_length": 10,
    "click_num": 7,
    "RT": 1177,
    "action": 1,
    "reward": 2.7
  },
  {
    "phase": "TASK",
    "condition": "Cond3",
    "trial_num": 39,
    "trial_length": 10,
    "click_num": 8,
    "RT": 1336,
    "action": 1,
    "reward": 2.7
  },
  {
    "phase": "TASK",
    "condition": "Cond3",
    "trial_num": 39,
    "trial_length": 10,
    "click_num": 9,
    "RT": 1432,
    "action": 1,
    "reward": 2.3
  },
  {
    "phase": "TASK",
    "condition": "Cond3",
    "trial_num": 39,
    "trial_length": 10,
    "click_num": 10,
    "RT": 1510,
    "action": 1,
    "reward": 3
  },
  {
    "phase": "TASK",
    "condition": "Cond3",
    "trial_num": 40,
    "trial_length": 9,
    "click_num": 1,
    "RT": 1429,
    "action": 1,
    "reward": 3.4
  },
  {
    "phase": "TASK",
    "condition": "Cond3",
    "trial_num": 40,
    "trial_length": 9,
    "click_num": 2,
    "RT": 1408,
    "action": 1,
    "reward": 2.8
  },
  {
    "phase": "TASK",
    "condition": "Cond3",
    "trial_num": 40,
    "trial_length": 9,
    "click_num": 3,
    "RT": 1121,
    "action": 1,
    "reward": 3.3
  },
  {
    "phase": "TASK",
    "condition": "Cond3",
    "trial_num": 40,
    "trial_length": 9,
    "click_num": 4,
    "RT": 1648,
    "action": 1,
    "reward": 2.5
  },
  {
    "phase": "TASK",
    "condition": "Cond3",
    "trial_num": 40,
    "trial_length": 9,
    "click_num": 5,
    "RT": 1306,
    "action": 1,
    "reward": 1.9
  },
  {
    "phase": "TASK",
    "condition": "Cond3",
    "trial_num": 40,
    "trial_length": 9,
    "click_num": 6,
    "RT": 1798,
    "action": 1,
    "reward": 3.1
  },
  {
    "phase": "TASK",
    "condition": "Cond3",
    "trial_num": 40,
    "trial_length": 9,
    "click_num": 7,
    "RT": 2023,
    "action": 0,
    "reward": 3.4
  },
  {
    "phase": "TASK",
    "condition": "Cond3",
    "trial_num": 40,
    "trial_length": 9,
    "click_num": 8,
    "RT": 1085,
    "action": 0,
    "reward": 3.4
  },
  {
    "phase": "TASK",
    "condition": "Cond3",
    "trial_num": 40,
    "trial_length": 9,
    "click_num": 9,
    "RT": 1083,
    "action": 0,
    "reward": 3.4
  },
  {
    "phase": "TASK",
    "condition": "Cond3",
    "trial_num": 41,
    "trial_length": 8,
    "click_num": 1,
    "RT": 1368,
    "action": 1,
    "reward": 3.2
  },
  {
    "phase": "TASK",
    "condition": "Cond3",
    "trial_num": 41,
    "trial_length": 8,
    "click_num": 2,
    "RT": 1458,
    "action": 1,
    "reward": 2.9
  },
  {
    "phase": "TASK",
    "condition": "Cond3",
    "trial_num": 41,
    "trial_length": 8,
    "click_num": 3,
    "RT": 1131,
    "action": 1,
    "reward": 2.9
  },
  {
    "phase": "TASK",
    "condition": "Cond3",
    "trial_num": 41,
    "trial_length": 8,
    "click_num": 4,
    "RT": 1499,
    "action": 0,
    "reward": 3.2
  },
  {
    "phase": "TASK",
    "condition": "Cond3",
    "trial_num": 41,
    "trial_length": 8,
    "click_num": 5,
    "RT": 847,
    "action": 0,
    "reward": 3.2
  },
  {
    "phase": "TASK",
    "condition": "Cond3",
    "trial_num": 41,
    "trial_length": 8,
    "click_num": 6,
    "RT": 673,
    "action": 0,
    "reward": 3.2
  },
  {
    "phase": "TASK",
    "condition": "Cond3",
    "trial_num": 41,
    "trial_length": 8,
    "click_num": 7,
    "RT": 727,
    "action": 0,
    "reward": 3.2
  },
  {
    "phase": "TASK",
    "condition": "Cond3",
    "trial_num": 41,
    "trial_length": 8,
    "click_num": 8,
    "RT": 712,
    "action": 0,
    "reward": 3.2
  },
  {
    "phase": "TASK",
    "condition": "Cond3",
    "trial_num": 42,
    "trial_length": 9,
    "click_num": 1,
    "RT": 1606,
    "action": 1,
    "reward": 2.7
  },
  {
    "phase": "TASK",
    "condition": "Cond3",
    "trial_num": 42,
    "trial_length": 9,
    "click_num": 2,
    "RT": 1650,
    "action": 1,
    "reward": 1.9
  },
  {
    "phase": "TASK",
    "condition": "Cond3",
    "trial_num": 42,
    "trial_length": 9,
    "click_num": 3,
    "RT": 1204,
    "action": 1,
    "reward": 2.2
  },
  {
    "phase": "TASK",
    "condition": "Cond3",
    "trial_num": 42,
    "trial_length": 9,
    "click_num": 4,
    "RT": 1057,
    "action": 1,
    "reward": 2.4
  },
  {
    "phase": "TASK",
    "condition": "Cond3",
    "trial_num": 42,
    "trial_length": 9,
    "click_num": 5,
    "RT": 1104,
    "action": 1,
    "reward": 1.9
  },
  {
    "phase": "TASK",
    "condition": "Cond3",
    "trial_num": 42,
    "trial_length": 9,
    "click_num": 6,
    "RT": 1305,
    "action": 1,
    "reward": 3.8
  },
  {
    "phase": "TASK",
    "condition": "Cond3",
    "trial_num": 42,
    "trial_length": 9,
    "click_num": 7,
    "RT": 1239,
    "action": 0,
    "reward": 3.8
  },
  {
    "phase": "TASK",
    "condition": "Cond3",
    "trial_num": 42,
    "trial_length": 9,
    "click_num": 8,
    "RT": 712,
    "action": 0,
    "reward": 3.8
  },
  {
    "phase": "TASK",
    "condition": "Cond3",
    "trial_num": 42,
    "trial_length": 9,
    "click_num": 9,
    "RT": 731,
    "action": 0,
    "reward": 3.8
  },
  {
    "phase": "TASK",
    "condition": "Cond3",
    "trial_num": 43,
    "trial_length": 6,
    "click_num": 1,
    "RT": 968,
    "action": 1,
    "reward": 3.7
  },
  {
    "phase": "TASK",
    "condition": "Cond3",
    "trial_num": 43,
    "trial_length": 6,
    "click_num": 2,
    "RT": 1182,
    "action": 0,
    "reward": 3.7
  },
  {
    "phase": "TASK",
    "condition": "Cond3",
    "trial_num": 43,
    "trial_length": 6,
    "click_num": 3,
    "RT": 623,
    "action": 0,
    "reward": 3.7
  },
  {
    "phase": "TASK",
    "condition": "Cond3",
    "trial_num": 43,
    "trial_length": 6,
    "click_num": 4,
    "RT": 583,
    "action": 0,
    "reward": 3.7
  },
  {
    "phase": "TASK",
    "condition": "Cond3",
    "trial_num": 43,
    "trial_length": 6,
    "click_num": 5,
    "RT": 553,
    "action": 0,
    "reward": 3.7
  },
  {
    "phase": "TASK",
    "condition": "Cond3",
    "trial_num": 43,
    "trial_length": 6,
    "click_num": 6,
    "RT": 720,
    "action": 0,
    "reward": 3.7
  },
  {
    "phase": "TASK",
    "condition": "Cond3",
    "trial_num": 44,
    "trial_length": 9,
    "click_num": 1,
    "RT": 3102,
    "action": 1,
    "reward": 2.4
  },
  {
    "phase": "TASK",
    "condition": "Cond3",
    "trial_num": 44,
    "trial_length": 9,
    "click_num": 2,
    "RT": 1170,
    "action": 1,
    "reward": 3.5
  },
  {
    "phase": "TASK",
    "condition": "Cond3",
    "trial_num": 44,
    "trial_length": 9,
    "click_num": 3,
    "RT": 1384,
    "action": 0,
    "reward": 3.5
  },
  {
    "phase": "TASK",
    "condition": "Cond3",
    "trial_num": 44,
    "trial_length": 9,
    "click_num": 4,
    "RT": 566,
    "action": 0,
    "reward": 3.5
  },
  {
    "phase": "TASK",
    "condition": "Cond3",
    "trial_num": 44,
    "trial_length": 9,
    "click_num": 5,
    "RT": 561,
    "action": 0,
    "reward": 3.5
  },
  {
    "phase": "TASK",
    "condition": "Cond3",
    "trial_num": 44,
    "trial_length": 9,
    "click_num": 6,
    "RT": 600,
    "action": 0,
    "reward": 3.5
  },
  {
    "phase": "TASK",
    "condition": "Cond3",
    "trial_num": 44,
    "trial_length": 9,
    "click_num": 7,
    "RT": 607,
    "action": 0,
    "reward": 3.5
  },
  {
    "phase": "TASK",
    "condition": "Cond3",
    "trial_num": 44,
    "trial_length": 9,
    "click_num": 8,
    "RT": 601,
    "action": 0,
    "reward": 3.5
  },
  {
    "phase": "TASK",
    "condition": "Cond3",
    "trial_num": 44,
    "trial_length": 9,
    "click_num": 9,
    "RT": 600,
    "action": 0,
    "reward": 3.5
  },
  {
    "phase": "TASK",
    "condition": "Cond3",
    "trial_num": 45,
    "trial_length": 10,
    "click_num": 1,
    "RT": 1198,
    "action": 1,
    "reward": 2.5
  },
  {
    "phase": "TASK",
    "condition": "Cond3",
    "trial_num": 45,
    "trial_length": 10,
    "click_num": 2,
    "RT": 1200,
    "action": 1,
    "reward": 2.8
  },
  {
    "phase": "TASK",
    "condition": "Cond3",
    "trial_num": 45,
    "trial_length": 10,
    "click_num": 3,
    "RT": 1067,
    "action": 1,
    "reward": 2.8
  },
  {
    "phase": "TASK",
    "condition": "Cond3",
    "trial_num": 45,
    "trial_length": 10,
    "click_num": 4,
    "RT": 1038,
    "action": 1,
    "reward": 2.8
  },
  {
    "phase": "TASK",
    "condition": "Cond3",
    "trial_num": 45,
    "trial_length": 10,
    "click_num": 5,
    "RT": 1039,
    "action": 1,
    "reward": 2.6
  },
  {
    "phase": "TASK",
    "condition": "Cond3",
    "trial_num": 45,
    "trial_length": 10,
    "click_num": 6,
    "RT": 1288,
    "action": 1,
    "reward": 2.3
  },
  {
    "phase": "TASK",
    "condition": "Cond3",
    "trial_num": 45,
    "trial_length": 10,
    "click_num": 7,
    "RT": 1064,
    "action": 1,
    "reward": 2.1
  },
  {
    "phase": "TASK",
    "condition": "Cond3",
    "trial_num": 45,
    "trial_length": 10,
    "click_num": 8,
    "RT": 1641,
    "action": 1,
    "reward": 3.7
  },
  {
    "phase": "TASK",
    "condition": "Cond3",
    "trial_num": 45,
    "trial_length": 10,
    "click_num": 9,
    "RT": 990,
    "action": 0,
    "reward": 3.7
  },
  {
    "phase": "TASK",
    "condition": "Cond3",
    "trial_num": 45,
    "trial_length": 10,
    "click_num": 10,
    "RT": 704,
    "action": 0,
    "reward": 3.7
  },
  {
    "phase": "TASK",
    "condition": "Cond3",
    "trial_num": 46,
    "trial_length": 6,
    "click_num": 1,
    "RT": 1295,
    "action": 1,
    "reward": 2.6
  },
  {
    "phase": "TASK",
    "condition": "Cond3",
    "trial_num": 46,
    "trial_length": 6,
    "click_num": 2,
    "RT": 978,
    "action": 1,
    "reward": 3.8
  },
  {
    "phase": "TASK",
    "condition": "Cond3",
    "trial_num": 46,
    "trial_length": 6,
    "click_num": 3,
    "RT": 1183,
    "action": 0,
    "reward": 3.8
  },
  {
    "phase": "TASK",
    "condition": "Cond3",
    "trial_num": 46,
    "trial_length": 6,
    "click_num": 4,
    "RT": 1198,
    "action": 0,
    "reward": 3.8
  },
  {
    "phase": "TASK",
    "condition": "Cond3",
    "trial_num": 46,
    "trial_length": 6,
    "click_num": 5,
    "RT": 624,
    "action": 0,
    "reward": 3.8
  },
  {
    "phase": "TASK",
    "condition": "Cond3",
    "trial_num": 46,
    "trial_length": 6,
    "click_num": 6,
    "RT": 672,
    "action": 0,
    "reward": 3.8
  },
  {
    "phase": "TASK",
    "condition": "Cond3",
    "trial_num": 47,
    "trial_length": 8,
    "click_num": 1,
    "RT": 1292,
    "action": 1,
    "reward": 2.7
  },
  {
    "phase": "TASK",
    "condition": "Cond3",
    "trial_num": 47,
    "trial_length": 8,
    "click_num": 2,
    "RT": 1049,
    "action": 1,
    "reward": 2.8
  },
  {
    "phase": "TASK",
    "condition": "Cond3",
    "trial_num": 47,
    "trial_length": 8,
    "click_num": 3,
    "RT": 1055,
    "action": 1,
    "reward": 3.6
  },
  {
    "phase": "TASK",
    "condition": "Cond3",
    "trial_num": 47,
    "trial_length": 8,
    "click_num": 4,
    "RT": 1128,
    "action": 0,
    "reward": 3.6
  },
  {
    "phase": "TASK",
    "condition": "Cond3",
    "trial_num": 47,
    "trial_length": 8,
    "click_num": 5,
    "RT": 590,
    "action": 0,
    "reward": 3.6
  },
  {
    "phase": "TASK",
    "condition": "Cond3",
    "trial_num": 47,
    "trial_length": 8,
    "click_num": 6,
    "RT": 706,
    "action": 0,
    "reward": 3.6
  },
  {
    "phase": "TASK",
    "condition": "Cond3",
    "trial_num": 47,
    "trial_length": 8,
    "click_num": 7,
    "RT": 639,
    "action": 0,
    "reward": 3.6
  },
  {
    "phase": "TASK",
    "condition": "Cond3",
    "trial_num": 47,
    "trial_length": 8,
    "click_num": 8,
    "RT": 889,
    "action": 0,
    "reward": 3.6
  },
  {
    "phase": "TASK",
    "condition": "Cond3",
    "trial_num": 48,
    "trial_length": 5,
    "click_num": 1,
    "RT": 2616,
    "action": 1,
    "reward": 3.6
  },
  {
    "phase": "TASK",
    "condition": "Cond3",
    "trial_num": 48,
    "trial_length": 5,
    "click_num": 2,
    "RT": 2376,
    "action": 0,
    "reward": 3.6
  },
  {
    "phase": "TASK",
    "condition": "Cond3",
    "trial_num": 48,
    "trial_length": 5,
    "click_num": 3,
    "RT": 1423,
    "action": 0,
    "reward": 3.6
  },
  {
    "phase": "TASK",
    "condition": "Cond3",
    "trial_num": 48,
    "trial_length": 5,
    "click_num": 4,
    "RT": 611,
    "action": 0,
    "reward": 3.6
  },
  {
    "phase": "TASK",
    "condition": "Cond3",
    "trial_num": 48,
    "trial_length": 5,
    "click_num": 5,
    "RT": 1140,
    "action": 0,
    "reward": 3.6
  },
  {
    "phase": "TASK",
    "condition": "Cond3",
    "trial_num": 49,
    "trial_length": 10,
    "click_num": 1,
    "RT": 1573,
    "action": 1,
    "reward": 3.2
  },
  {
    "phase": "TASK",
    "condition": "Cond3",
    "trial_num": 49,
    "trial_length": 10,
    "click_num": 2,
    "RT": 1264,
    "action": 1,
    "reward": 2.4
  },
  {
    "phase": "TASK",
    "condition": "Cond3",
    "trial_num": 49,
    "trial_length": 10,
    "click_num": 3,
    "RT": 1296,
    "action": 1,
    "reward": 3.5
  },
  {
    "phase": "TASK",
    "condition": "Cond3",
    "trial_num": 49,
    "trial_length": 10,
    "click_num": 4,
    "RT": 1163,
    "action": 0,
    "reward": 3.5
  },
  {
    "phase": "TASK",
    "condition": "Cond3",
    "trial_num": 49,
    "trial_length": 10,
    "click_num": 5,
    "RT": 590,
    "action": 0,
    "reward": 3.5
  },
  {
    "phase": "TASK",
    "condition": "Cond3",
    "trial_num": 49,
    "trial_length": 10,
    "click_num": 6,
    "RT": 575,
    "action": 0,
    "reward": 3.5
  },
  {
    "phase": "TASK",
    "condition": "Cond3",
    "trial_num": 49,
    "trial_length": 10,
    "click_num": 7,
    "RT": 659,
    "action": 0,
    "reward": 3.5
  },
  {
    "phase": "TASK",
    "condition": "Cond3",
    "trial_num": 49,
    "trial_length": 10,
    "click_num": 8,
    "RT": 654,
    "action": 0,
    "reward": 3.5
  },
  {
    "phase": "TASK",
    "condition": "Cond3",
    "trial_num": 49,
    "trial_length": 10,
    "click_num": 9,
    "RT": 737,
    "action": 0,
    "reward": 3.5
  },
  {
    "phase": "TASK",
    "condition": "Cond3",
    "trial_num": 49,
    "trial_length": 10,
    "click_num": 10,
    "RT": 846,
    "action": 0,
    "reward": 3.5
  },
  {
    "phase": "TASK",
    "condition": "Cond3",
    "trial_num": 50,
    "trial_length": 8,
    "click_num": 1,
    "RT": 1414,
    "action": 1,
    "reward": 3.7
  },
  {
    "phase": "TASK",
    "condition": "Cond3",
    "trial_num": 50,
    "trial_length": 8,
    "click_num": 2,
    "RT": 1120,
    "action": 0,
    "reward": 3.7
  },
  {
    "phase": "TASK",
    "condition": "Cond3",
    "trial_num": 50,
    "trial_length": 8,
    "click_num": 3,
    "RT": 536,
    "action": 0,
    "reward": 3.7
  },
  {
    "phase": "TASK",
    "condition": "Cond3",
    "trial_num": 50,
    "trial_length": 8,
    "click_num": 4,
    "RT": 576,
    "action": 0,
    "reward": 3.7
  },
  {
    "phase": "TASK",
    "condition": "Cond3",
    "trial_num": 50,
    "trial_length": 8,
    "click_num": 5,
    "RT": 520,
    "action": 0,
    "reward": 3.7
  },
  {
    "phase": "TASK",
    "condition": "Cond3",
    "trial_num": 50,
    "trial_length": 8,
    "click_num": 6,
    "RT": 585,
    "action": 0,
    "reward": 3.7
  },
  {
    "phase": "TASK",
    "condition": "Cond3",
    "trial_num": 50,
    "trial_length": 8,
    "click_num": 7,
    "RT": 650,
    "action": 0,
    "reward": 3.7
  },
  {
    "phase": "TASK",
    "condition": "Cond3",
    "trial_num": 50,
    "trial_length": 8,
    "click_num": 8,
    "RT": 830,
    "action": 0,
    "reward": 3.7
  },
  {
    "phase": "TASK",
    "condition": "Cond3",
    "trial_num": 51,
    "trial_length": 7,
    "click_num": 1,
    "RT": 1015,
    "action": 1,
    "reward": 2.7
  },
  {
    "phase": "TASK",
    "condition": "Cond3",
    "trial_num": 51,
    "trial_length": 7,
    "click_num": 2,
    "RT": 1127,
    "action": 1,
    "reward": 3.3
  },
  {
    "phase": "TASK",
    "condition": "Cond3",
    "trial_num": 51,
    "trial_length": 7,
    "click_num": 3,
    "RT": 1648,
    "action": 1,
    "reward": 3.5
  },
  {
    "phase": "TASK",
    "condition": "Cond3",
    "trial_num": 51,
    "trial_length": 7,
    "click_num": 4,
    "RT": 1472,
    "action": 0,
    "reward": 3.5
  },
  {
    "phase": "TASK",
    "condition": "Cond3",
    "trial_num": 51,
    "trial_length": 7,
    "click_num": 5,
    "RT": 560,
    "action": 0,
    "reward": 3.5
  },
  {
    "phase": "TASK",
    "condition": "Cond3",
    "trial_num": 51,
    "trial_length": 7,
    "click_num": 6,
    "RT": 576,
    "action": 0,
    "reward": 3.5
  },
  {
    "phase": "TASK",
    "condition": "Cond3",
    "trial_num": 51,
    "trial_length": 7,
    "click_num": 7,
    "RT": 696,
    "action": 0,
    "reward": 3.5
  },
  {
    "phase": "TASK",
    "condition": "Cond3",
    "trial_num": 52,
    "trial_length": 5,
    "click_num": 1,
    "RT": 1833,
    "action": 1,
    "reward": 3.3
  },
  {
    "phase": "TASK",
    "condition": "Cond3",
    "trial_num": 52,
    "trial_length": 5,
    "click_num": 2,
    "RT": 1400,
    "action": 1,
    "reward": 2.7
  },
  {
    "phase": "TASK",
    "condition": "Cond3",
    "trial_num": 52,
    "trial_length": 5,
    "click_num": 3,
    "RT": 1136,
    "action": 1,
    "reward": 3
  },
  {
    "phase": "TASK",
    "condition": "Cond3",
    "trial_num": 52,
    "trial_length": 5,
    "click_num": 4,
    "RT": 1344,
    "action": 1,
    "reward": 2.7
  },
  {
    "phase": "TASK",
    "condition": "Cond3",
    "trial_num": 52,
    "trial_length": 5,
    "click_num": 5,
    "RT": 1183,
    "action": 1,
    "reward": 3.9
  },
  {
    "phase": "TASK",
    "condition": "Cond3",
    "trial_num": 53,
    "trial_length": 5,
    "click_num": 1,
    "RT": 1763,
    "action": 1,
    "reward": 3.2
  },
  {
    "phase": "TASK",
    "condition": "Cond3",
    "trial_num": 53,
    "trial_length": 5,
    "click_num": 2,
    "RT": 1186,
    "action": 1,
    "reward": 2.5
  },
  {
    "phase": "TASK",
    "condition": "Cond3",
    "trial_num": 53,
    "trial_length": 5,
    "click_num": 3,
    "RT": 1031,
    "action": 1,
    "reward": 1.9
  },
  {
    "phase": "TASK",
    "condition": "Cond3",
    "trial_num": 53,
    "trial_length": 5,
    "click_num": 4,
    "RT": 1135,
    "action": 1,
    "reward": 4.1
  },
  {
    "phase": "TASK",
    "condition": "Cond3",
    "trial_num": 53,
    "trial_length": 5,
    "click_num": 5,
    "RT": 1448,
    "action": 0,
    "reward": 4.1
  },
  {
    "phase": "TASK",
    "condition": "Cond3",
    "trial_num": 54,
    "trial_length": 8,
    "click_num": 1,
    "RT": 1701,
    "action": 1,
    "reward": 3.9
  },
  {
    "phase": "TASK",
    "condition": "Cond3",
    "trial_num": 54,
    "trial_length": 8,
    "click_num": 2,
    "RT": 1232,
    "action": 0,
    "reward": 3.9
  },
  {
    "phase": "TASK",
    "condition": "Cond3",
    "trial_num": 54,
    "trial_length": 8,
    "click_num": 3,
    "RT": 1819,
    "action": 0,
    "reward": 3.9
  },
  {
    "phase": "TASK",
    "condition": "Cond3",
    "trial_num": 54,
    "trial_length": 8,
    "click_num": 4,
    "RT": 1767,
    "action": 0,
    "reward": 3.9
  },
  {
    "phase": "TASK",
    "condition": "Cond3",
    "trial_num": 54,
    "trial_length": 8,
    "click_num": 5,
    "RT": 670,
    "action": 0,
    "reward": 3.9
  },
  {
    "phase": "TASK",
    "condition": "Cond3",
    "trial_num": 54,
    "trial_length": 8,
    "click_num": 6,
    "RT": 752,
    "action": 0,
    "reward": 3.9
  },
  {
    "phase": "TASK",
    "condition": "Cond3",
    "trial_num": 54,
    "trial_length": 8,
    "click_num": 7,
    "RT": 1227,
    "action": 0,
    "reward": 3.9
  },
  {
    "phase": "TASK",
    "condition": "Cond3",
    "trial_num": 54,
    "trial_length": 8,
    "click_num": 8,
    "RT": 718,
    "action": 0,
    "reward": 3.9
  },
  {
    "phase": "TASK",
    "condition": "Cond3",
    "trial_num": 55,
    "trial_length": 6,
    "click_num": 1,
    "RT": 1213,
    "action": 1,
    "reward": 3
  },
  {
    "phase": "TASK",
    "condition": "Cond3",
    "trial_num": 55,
    "trial_length": 6,
    "click_num": 2,
    "RT": 1288,
    "action": 1,
    "reward": 2.9
  },
  {
    "phase": "TASK",
    "condition": "Cond3",
    "trial_num": 55,
    "trial_length": 6,
    "click_num": 3,
    "RT": 1137,
    "action": 1,
    "reward": 2.9
  },
  {
    "phase": "TASK",
    "condition": "Cond3",
    "trial_num": 55,
    "trial_length": 6,
    "click_num": 4,
    "RT": 1128,
    "action": 1,
    "reward": 3.3
  },
  {
    "phase": "TASK",
    "condition": "Cond3",
    "trial_num": 55,
    "trial_length": 6,
    "click_num": 5,
    "RT": 2834,
    "action": 1,
    "reward": 1.7
  },
  {
    "phase": "TASK",
    "condition": "Cond3",
    "trial_num": 55,
    "trial_length": 6,
    "click_num": 6,
    "RT": 1031,
    "action": 1,
    "reward": 3.9
  },
  {
    "phase": "TASK",
    "condition": "Cond3",
    "trial_num": 56,
    "trial_length": 6,
    "click_num": 1,
    "RT": 1213,
    "action": 1,
    "reward": 3
  },
  {
    "phase": "TASK",
    "condition": "Cond3",
    "trial_num": 56,
    "trial_length": 6,
    "click_num": 2,
    "RT": 1272,
    "action": 1,
    "reward": 3.6
  },
  {
    "phase": "TASK",
    "condition": "Cond3",
    "trial_num": 56,
    "trial_length": 6,
    "click_num": 3,
    "RT": 1635,
    "action": 0,
    "reward": 3.6
  },
  {
    "phase": "TASK",
    "condition": "Cond3",
    "trial_num": 56,
    "trial_length": 6,
    "click_num": 4,
    "RT": 543,
    "action": 0,
    "reward": 3.6
  },
  {
    "phase": "TASK",
    "condition": "Cond3",
    "trial_num": 56,
    "trial_length": 6,
    "click_num": 5,
    "RT": 703,
    "action": 0,
    "reward": 3.6
  },
  {
    "phase": "TASK",
    "condition": "Cond3",
    "trial_num": 56,
    "trial_length": 6,
    "click_num": 6,
    "RT": 774,
    "action": 0,
    "reward": 3.6
  },
  {
    "phase": "TASK",
    "condition": "Cond3",
    "trial_num": 57,
    "trial_length": 7,
    "click_num": 1,
    "RT": 1741,
    "action": 1,
    "reward": 2.8
  },
  {
    "phase": "TASK",
    "condition": "Cond3",
    "trial_num": 57,
    "trial_length": 7,
    "click_num": 2,
    "RT": 1479,
    "action": 1,
    "reward": 3.3
  },
  {
    "phase": "TASK",
    "condition": "Cond3",
    "trial_num": 57,
    "trial_length": 7,
    "click_num": 3,
    "RT": 1697,
    "action": 1,
    "reward": 3.5
  },
  {
    "phase": "TASK",
    "condition": "Cond3",
    "trial_num": 57,
    "trial_length": 7,
    "click_num": 4,
    "RT": 1585,
    "action": 0,
    "reward": 3.5
  },
  {
    "phase": "TASK",
    "condition": "Cond3",
    "trial_num": 57,
    "trial_length": 7,
    "click_num": 5,
    "RT": 1344,
    "action": 0,
    "reward": 3.5
  },
  {
    "phase": "TASK",
    "condition": "Cond3",
    "trial_num": 57,
    "trial_length": 7,
    "click_num": 6,
    "RT": 1406,
    "action": 0,
    "reward": 3.5
  },
  {
    "phase": "TASK",
    "condition": "Cond3",
    "trial_num": 57,
    "trial_length": 7,
    "click_num": 7,
    "RT": 890,
    "action": 0,
    "reward": 3.5
  },
  {
    "phase": "TASK",
    "condition": "Cond3",
    "trial_num": 58,
    "trial_length": 7,
    "click_num": 1,
    "RT": 1684,
    "action": 1,
    "reward": 3.4
  },
  {
    "phase": "TASK",
    "condition": "Cond3",
    "trial_num": 58,
    "trial_length": 7,
    "click_num": 2,
    "RT": 1610,
    "action": 0,
    "reward": 3.4
  },
  {
    "phase": "TASK",
    "condition": "Cond3",
    "trial_num": 58,
    "trial_length": 7,
    "click_num": 3,
    "RT": 646,
    "action": 0,
    "reward": 3.4
  },
  {
    "phase": "TASK",
    "condition": "Cond3",
    "trial_num": 58,
    "trial_length": 7,
    "click_num": 4,
    "RT": 620,
    "action": 0,
    "reward": 3.4
  },
  {
    "phase": "TASK",
    "condition": "Cond3",
    "trial_num": 58,
    "trial_length": 7,
    "click_num": 5,
    "RT": 647,
    "action": 0,
    "reward": 3.4
  },
  {
    "phase": "TASK",
    "condition": "Cond3",
    "trial_num": 58,
    "trial_length": 7,
    "click_num": 6,
    "RT": 717,
    "action": 0,
    "reward": 3.4
  },
  {
    "phase": "TASK",
    "condition": "Cond3",
    "trial_num": 58,
    "trial_length": 7,
    "click_num": 7,
    "RT": 689,
    "action": 0,
    "reward": 3.4
  },
  {
    "phase": "TASK",
    "condition": "Cond3",
    "trial_num": 59,
    "trial_length": 10,
    "click_num": 1,
    "RT": 1243,
    "action": 1,
    "reward": 2.7
  },
  {
    "phase": "TASK",
    "condition": "Cond3",
    "trial_num": 59,
    "trial_length": 10,
    "click_num": 2,
    "RT": 1280,
    "action": 1,
    "reward": 3.2
  },
  {
    "phase": "TASK",
    "condition": "Cond3",
    "trial_num": 59,
    "trial_length": 10,
    "click_num": 3,
    "RT": 1137,
    "action": 1,
    "reward": 2.5
  },
  {
    "phase": "TASK",
    "condition": "Cond3",
    "trial_num": 59,
    "trial_length": 10,
    "click_num": 4,
    "RT": 1175,
    "action": 1,
    "reward": 2.5
  },
  {
    "phase": "TASK",
    "condition": "Cond3",
    "trial_num": 59,
    "trial_length": 10,
    "click_num": 5,
    "RT": 1256,
    "action": 1,
    "reward": 3.2
  },
  {
    "phase": "TASK",
    "condition": "Cond3",
    "trial_num": 59,
    "trial_length": 10,
    "click_num": 6,
    "RT": 1600,
    "action": 1,
    "reward": 2.4
  },
  {
    "phase": "TASK",
    "condition": "Cond3",
    "trial_num": 59,
    "trial_length": 10,
    "click_num": 7,
    "RT": 1137,
    "action": 1,
    "reward": 2.8
  },
  {
    "phase": "TASK",
    "condition": "Cond3",
    "trial_num": 59,
    "trial_length": 10,
    "click_num": 8,
    "RT": 1055,
    "action": 1,
    "reward": 3
  },
  {
    "phase": "TASK",
    "condition": "Cond3",
    "trial_num": 59,
    "trial_length": 10,
    "click_num": 9,
    "RT": 1697,
    "action": 1,
    "reward": 1.8
  },
  {
    "phase": "TASK",
    "condition": "Cond3",
    "trial_num": 59,
    "trial_length": 10,
    "click_num": 10,
    "RT": 959,
    "action": 1,
    "reward": 4.1
  },
  {
    "phase": "TASK",
    "condition": "Cond3",
    "trial_num": 60,
    "trial_length": 7,
    "click_num": 1,
    "RT": 1670,
    "action": 1,
    "reward": 2.2
  },
  {
    "phase": "TASK",
    "condition": "Cond3",
    "trial_num": 60,
    "trial_length": 7,
    "click_num": 2,
    "RT": 1170,
    "action": 1,
    "reward": 3
  },
  {
    "phase": "TASK",
    "condition": "Cond3",
    "trial_num": 60,
    "trial_length": 7,
    "click_num": 3,
    "RT": 3505,
    "action": 1,
    "reward": 3.7
  },
  {
    "phase": "TASK",
    "condition": "Cond3",
    "trial_num": 60,
    "trial_length": 7,
    "click_num": 4,
    "RT": 1407,
    "action": 0,
    "reward": 3.7
  },
  {
    "phase": "TASK",
    "condition": "Cond3",
    "trial_num": 60,
    "trial_length": 7,
    "click_num": 5,
    "RT": 622,
    "action": 0,
    "reward": 3.7
  },
  {
    "phase": "TASK",
    "condition": "Cond3",
    "trial_num": 60,
    "trial_length": 7,
    "click_num": 6,
    "RT": 756,
    "action": 0,
    "reward": 3.7
  },
  {
    "phase": "TASK",
    "condition": "Cond3",
    "trial_num": 60,
    "trial_length": 7,
    "click_num": 7,
    "RT": 782,
    "action": 0,
    "reward": 3.7
  },
  {
    "phase": "TASK",
    "condition": "Cond3",
    "trial_num": 61,
    "trial_length": 5,
    "click_num": 1,
    "RT": 1526,
    "action": 1,
    "reward": 3.3
  },
  {
    "phase": "TASK",
    "condition": "Cond3",
    "trial_num": 61,
    "trial_length": 5,
    "click_num": 2,
    "RT": 3874,
    "action": 1,
    "reward": 3.1
  },
  {
    "phase": "TASK",
    "condition": "Cond3",
    "trial_num": 61,
    "trial_length": 5,
    "click_num": 3,
    "RT": 1472,
    "action": 1,
    "reward": 4.4
  },
  {
    "phase": "TASK",
    "condition": "Cond3",
    "trial_num": 61,
    "trial_length": 5,
    "click_num": 4,
    "RT": 1319,
    "action": 0,
    "reward": 4.4
  },
  {
    "phase": "TASK",
    "condition": "Cond3",
    "trial_num": 61,
    "trial_length": 5,
    "click_num": 5,
    "RT": 668,
    "action": 0,
    "reward": 4.4
  },
  {
    "phase": "TASK",
    "condition": "Cond3",
    "trial_num": 62,
    "trial_length": 8,
    "click_num": 1,
    "RT": 1125,
    "action": 1,
    "reward": 3.8
  },
  {
    "phase": "TASK",
    "condition": "Cond3",
    "trial_num": 62,
    "trial_length": 8,
    "click_num": 2,
    "RT": 1176,
    "action": 0,
    "reward": 3.8
  },
  {
    "phase": "TASK",
    "condition": "Cond3",
    "trial_num": 62,
    "trial_length": 8,
    "click_num": 3,
    "RT": 504,
    "action": 0,
    "reward": 3.8
  },
  {
    "phase": "TASK",
    "condition": "Cond3",
    "trial_num": 62,
    "trial_length": 8,
    "click_num": 4,
    "RT": 494,
    "action": 0,
    "reward": 3.8
  },
  {
    "phase": "TASK",
    "condition": "Cond3",
    "trial_num": 62,
    "trial_length": 8,
    "click_num": 5,
    "RT": 755,
    "action": 0,
    "reward": 3.8
  },
  {
    "phase": "TASK",
    "condition": "Cond3",
    "trial_num": 62,
    "trial_length": 8,
    "click_num": 6,
    "RT": 511,
    "action": 0,
    "reward": 3.8
  },
  {
    "phase": "TASK",
    "condition": "Cond3",
    "trial_num": 62,
    "trial_length": 8,
    "click_num": 7,
    "RT": 616,
    "action": 0,
    "reward": 3.8
  },
  {
    "phase": "TASK",
    "condition": "Cond3",
    "trial_num": 62,
    "trial_length": 8,
    "click_num": 8,
    "RT": 1672,
    "action": 0,
    "reward": 3.8
  },
  {
    "phase": "TASK",
    "condition": "Cond3",
    "trial_num": 63,
    "trial_length": 9,
    "click_num": 1,
    "RT": 1166,
    "action": 1,
    "reward": 2.9
  },
  {
    "phase": "TASK",
    "condition": "Cond3",
    "trial_num": 63,
    "trial_length": 9,
    "click_num": 2,
    "RT": 1247,
    "action": 1,
    "reward": 4.4
  },
  {
    "phase": "TASK",
    "condition": "Cond3",
    "trial_num": 63,
    "trial_length": 9,
    "click_num": 3,
    "RT": 1160,
    "action": 0,
    "reward": 4.4
  },
  {
    "phase": "TASK",
    "condition": "Cond3",
    "trial_num": 63,
    "trial_length": 9,
    "click_num": 4,
    "RT": 625,
    "action": 0,
    "reward": 4.4
  },
  {
    "phase": "TASK",
    "condition": "Cond3",
    "trial_num": 63,
    "trial_length": 9,
    "click_num": 5,
    "RT": 641,
    "action": 0,
    "reward": 4.4
  },
  {
    "phase": "TASK",
    "condition": "Cond3",
    "trial_num": 63,
    "trial_length": 9,
    "click_num": 6,
    "RT": 726,
    "action": 0,
    "reward": 4.4
  },
  {
    "phase": "TASK",
    "condition": "Cond3",
    "trial_num": 63,
    "trial_length": 9,
    "click_num": 7,
    "RT": 712,
    "action": 0,
    "reward": 4.4
  },
  {
    "phase": "TASK",
    "condition": "Cond3",
    "trial_num": 63,
    "trial_length": 9,
    "click_num": 8,
    "RT": 778,
    "action": 0,
    "reward": 4.4
  },
  {
    "phase": "TASK",
    "condition": "Cond3",
    "trial_num": 63,
    "trial_length": 9,
    "click_num": 9,
    "RT": 839,
    "action": 0,
    "reward": 4.4
  },
  {
    "phase": "TASK",
    "condition": "Cond3",
    "trial_num": 64,
    "trial_length": 6,
    "click_num": 1,
    "RT": 2494,
    "action": 1,
    "reward": 2.2
  },
  {
    "phase": "TASK",
    "condition": "Cond3",
    "trial_num": 64,
    "trial_length": 6,
    "click_num": 2,
    "RT": 1351,
    "action": 1,
    "reward": 2.7
  },
  {
    "phase": "TASK",
    "condition": "Cond3",
    "trial_num": 64,
    "trial_length": 6,
    "click_num": 3,
    "RT": 1139,
    "action": 1,
    "reward": 2.9
  },
  {
    "phase": "TASK",
    "condition": "Cond3",
    "trial_num": 64,
    "trial_length": 6,
    "click_num": 4,
    "RT": 1472,
    "action": 1,
    "reward": 2.9
  },
  {
    "phase": "TASK",
    "condition": "Cond3",
    "trial_num": 64,
    "trial_length": 6,
    "click_num": 5,
    "RT": 1631,
    "action": 1,
    "reward": 3.1
  },
  {
    "phase": "TASK",
    "condition": "Cond3",
    "trial_num": 64,
    "trial_length": 6,
    "click_num": 6,
    "RT": 1298,
    "action": 1,
    "reward": 2.8
  },
  {
    "phase": "TASK",
    "condition": "Cond3",
    "trial_num": 65,
    "trial_length": 8,
    "click_num": 1,
    "RT": 1108,
    "action": 1,
    "reward": 2.8
  },
  {
    "phase": "TASK",
    "condition": "Cond3",
    "trial_num": 65,
    "trial_length": 8,
    "click_num": 2,
    "RT": 1271,
    "action": 1,
    "reward": 3.1
  },
  {
    "phase": "TASK",
    "condition": "Cond3",
    "trial_num": 65,
    "trial_length": 8,
    "click_num": 3,
    "RT": 1121,
    "action": 1,
    "reward": 2.7
  },
  {
    "phase": "TASK",
    "condition": "Cond3",
    "trial_num": 65,
    "trial_length": 8,
    "click_num": 4,
    "RT": 1096,
    "action": 1,
    "reward": 2.5
  },
  {
    "phase": "TASK",
    "condition": "Cond3",
    "trial_num": 65,
    "trial_length": 8,
    "click_num": 5,
    "RT": 1009,
    "action": 1,
    "reward": 2.7
  },
  {
    "phase": "TASK",
    "condition": "Cond3",
    "trial_num": 65,
    "trial_length": 8,
    "click_num": 6,
    "RT": 1185,
    "action": 1,
    "reward": 3
  },
  {
    "phase": "TASK",
    "condition": "Cond3",
    "trial_num": 65,
    "trial_length": 8,
    "click_num": 7,
    "RT": 1070,
    "action": 1,
    "reward": 2.5
  },
  {
    "phase": "TASK",
    "condition": "Cond3",
    "trial_num": 65,
    "trial_length": 8,
    "click_num": 8,
    "RT": 952,
    "action": 1,
    "reward": 3.2
  },
  {
    "phase": "TASK",
    "condition": "Cond3",
    "trial_num": 66,
    "trial_length": 10,
    "click_num": 1,
    "RT": 1100,
    "action": 1,
    "reward": 2.8
  },
  {
    "phase": "TASK",
    "condition": "Cond3",
    "trial_num": 66,
    "trial_length": 10,
    "click_num": 2,
    "RT": 1080,
    "action": 1,
    "reward": 3.9
  },
  {
    "phase": "TASK",
    "condition": "Cond3",
    "trial_num": 66,
    "trial_length": 10,
    "click_num": 3,
    "RT": 1921,
    "action": 0,
    "reward": 3.9
  },
  {
    "phase": "TASK",
    "condition": "Cond3",
    "trial_num": 66,
    "trial_length": 10,
    "click_num": 4,
    "RT": 655,
    "action": 0,
    "reward": 3.9
  },
  {
    "phase": "TASK",
    "condition": "Cond3",
    "trial_num": 66,
    "trial_length": 10,
    "click_num": 5,
    "RT": 1272,
    "action": 0,
    "reward": 3.9
  },
  {
    "phase": "TASK",
    "condition": "Cond3",
    "trial_num": 66,
    "trial_length": 10,
    "click_num": 6,
    "RT": 592,
    "action": 0,
    "reward": 3.9
  },
  {
    "phase": "TASK",
    "condition": "Cond3",
    "trial_num": 66,
    "trial_length": 10,
    "click_num": 7,
    "RT": 594,
    "action": 0,
    "reward": 3.9
  },
  {
    "phase": "TASK",
    "condition": "Cond3",
    "trial_num": 66,
    "trial_length": 10,
    "click_num": 8,
    "RT": 821,
    "action": 0,
    "reward": 3.9
  },
  {
    "phase": "TASK",
    "condition": "Cond3",
    "trial_num": 66,
    "trial_length": 10,
    "click_num": 9,
    "RT": 704,
    "action": 0,
    "reward": 3.9
  },
  {
    "phase": "TASK",
    "condition": "Cond3",
    "trial_num": 66,
    "trial_length": 10,
    "click_num": 10,
    "RT": 607,
    "action": 0,
    "reward": 3.9
  },
  {
    "phase": "TASK",
    "condition": "Cond3",
    "trial_num": 67,
    "trial_length": 5,
    "click_num": 1,
    "RT": 1566,
    "action": 1,
    "reward": 3.4
  },
  {
    "phase": "TASK",
    "condition": "Cond3",
    "trial_num": 67,
    "trial_length": 5,
    "click_num": 2,
    "RT": 1745,
    "action": 0,
    "reward": 3.4
  },
  {
    "phase": "TASK",
    "condition": "Cond3",
    "trial_num": 67,
    "trial_length": 5,
    "click_num": 3,
    "RT": 599,
    "action": 0,
    "reward": 3.4
  },
  {
    "phase": "TASK",
    "condition": "Cond3",
    "trial_num": 67,
    "trial_length": 5,
    "click_num": 4,
    "RT": 651,
    "action": 0,
    "reward": 3.4
  },
  {
    "phase": "TASK",
    "condition": "Cond3",
    "trial_num": 67,
    "trial_length": 5,
    "click_num": 5,
    "RT": 1582,
    "action": 0,
    "reward": 3.4
  },
  {
    "phase": "TASK",
    "condition": "Cond3",
    "trial_num": 68,
    "trial_length": 10,
    "click_num": 1,
    "RT": 1087,
    "action": 1,
    "reward": 3.6
  },
  {
    "phase": "TASK",
    "condition": "Cond3",
    "trial_num": 68,
    "trial_length": 10,
    "click_num": 2,
    "RT": 1634,
    "action": 0,
    "reward": 3.6
  },
  {
    "phase": "TASK",
    "condition": "Cond3",
    "trial_num": 68,
    "trial_length": 10,
    "click_num": 3,
    "RT": 1014,
    "action": 0,
    "reward": 3.6
  },
  {
    "phase": "TASK",
    "condition": "Cond3",
    "trial_num": 68,
    "trial_length": 10,
    "click_num": 4,
    "RT": 976,
    "action": 0,
    "reward": 3.6
  },
  {
    "phase": "TASK",
    "condition": "Cond3",
    "trial_num": 68,
    "trial_length": 10,
    "click_num": 5,
    "RT": 652,
    "action": 0,
    "reward": 3.6
  },
  {
    "phase": "TASK",
    "condition": "Cond3",
    "trial_num": 68,
    "trial_length": 10,
    "click_num": 6,
    "RT": 859,
    "action": 0,
    "reward": 3.6
  },
  {
    "phase": "TASK",
    "condition": "Cond3",
    "trial_num": 68,
    "trial_length": 10,
    "click_num": 7,
    "RT": 2028,
    "action": 0,
    "reward": 3.6
  },
  {
    "phase": "TASK",
    "condition": "Cond3",
    "trial_num": 68,
    "trial_length": 10,
    "click_num": 8,
    "RT": 990,
    "action": 0,
    "reward": 3.6
  },
  {
    "phase": "TASK",
    "condition": "Cond3",
    "trial_num": 68,
    "trial_length": 10,
    "click_num": 9,
    "RT": 1191,
    "action": 0,
    "reward": 3.6
  },
  {
    "phase": "TASK",
    "condition": "Cond3",
    "trial_num": 68,
    "trial_length": 10,
    "click_num": 10,
    "RT": 1280,
    "action": 0,
    "reward": 3.6
  },
  {
    "phase": "TASK",
    "condition": "Cond3",
    "trial_num": 69,
    "trial_length": 7,
    "click_num": 1,
    "RT": 1106,
    "action": 1,
    "reward": 2.8
  },
  {
    "phase": "TASK",
    "condition": "Cond3",
    "trial_num": 69,
    "trial_length": 7,
    "click_num": 2,
    "RT": 1192,
    "action": 1,
    "reward": 2.7
  },
  {
    "phase": "TASK",
    "condition": "Cond3",
    "trial_num": 69,
    "trial_length": 7,
    "click_num": 3,
    "RT": 1192,
    "action": 1,
    "reward": 2.8
  },
  {
    "phase": "TASK",
    "condition": "Cond3",
    "trial_num": 69,
    "trial_length": 7,
    "click_num": 4,
    "RT": 1216,
    "action": 1,
    "reward": 3.3
  },
  {
    "phase": "TASK",
    "condition": "Cond3",
    "trial_num": 69,
    "trial_length": 7,
    "click_num": 5,
    "RT": 2082,
    "action": 1,
    "reward": 3.8
  },
  {
    "phase": "TASK",
    "condition": "Cond3",
    "trial_num": 69,
    "trial_length": 7,
    "click_num": 6,
    "RT": 1377,
    "action": 0,
    "reward": 3.8
  },
  {
    "phase": "TASK",
    "condition": "Cond3",
    "trial_num": 69,
    "trial_length": 7,
    "click_num": 7,
    "RT": 1925,
    "action": 0,
    "reward": 3.8
  },
  {
    "phase": "TASK",
    "condition": "Cond3",
    "trial_num": 70,
    "trial_length": 9,
    "click_num": 1,
    "RT": 1287,
    "action": 1,
    "reward": 2.5
  },
  {
    "phase": "TASK",
    "condition": "Cond3",
    "trial_num": 70,
    "trial_length": 9,
    "click_num": 2,
    "RT": 1494,
    "action": 1,
    "reward": 3.4
  },
  {
    "phase": "TASK",
    "condition": "Cond3",
    "trial_num": 70,
    "trial_length": 9,
    "click_num": 3,
    "RT": 2515,
    "action": 1,
    "reward": 4.3
  },
  {
    "phase": "TASK",
    "condition": "Cond3",
    "trial_num": 70,
    "trial_length": 9,
    "click_num": 4,
    "RT": 1149,
    "action": 0,
    "reward": 4.3
  },
  {
    "phase": "TASK",
    "condition": "Cond3",
    "trial_num": 70,
    "trial_length": 9,
    "click_num": 5,
    "RT": 835,
    "action": 0,
    "reward": 4.3
  },
  {
    "phase": "TASK",
    "condition": "Cond3",
    "trial_num": 70,
    "trial_length": 9,
    "click_num": 6,
    "RT": 733,
    "action": 0,
    "reward": 4.3
  },
  {
    "phase": "TASK",
    "condition": "Cond3",
    "trial_num": 70,
    "trial_length": 9,
    "click_num": 7,
    "RT": 680,
    "action": 0,
    "reward": 4.3
  },
  {
    "phase": "TASK",
    "condition": "Cond3",
    "trial_num": 70,
    "trial_length": 9,
    "click_num": 8,
    "RT": 729,
    "action": 0,
    "reward": 4.3
  },
  {
    "phase": "TASK",
    "condition": "Cond3",
    "trial_num": 70,
    "trial_length": 9,
    "click_num": 9,
    "RT": 761,
    "action": 0,
    "reward": 4.3
  },
  {
    "phase": "TASK",
    "condition": "Cond3",
    "trial_num": 71,
    "trial_length": 8,
    "click_num": 1,
    "RT": 1383,
    "action": 1,
    "reward": 2.7
  },
  {
    "phase": "TASK",
    "condition": "Cond3",
    "trial_num": 71,
    "trial_length": 8,
    "click_num": 2,
    "RT": 1432,
    "action": 1,
    "reward": 2.3
  },
  {
    "phase": "TASK",
    "condition": "Cond3",
    "trial_num": 71,
    "trial_length": 8,
    "click_num": 3,
    "RT": 944,
    "action": 1,
    "reward": 3.6
  },
  {
    "phase": "TASK",
    "condition": "Cond3",
    "trial_num": 71,
    "trial_length": 8,
    "click_num": 4,
    "RT": 1223,
    "action": 0,
    "reward": 3.6
  },
  {
    "phase": "TASK",
    "condition": "Cond3",
    "trial_num": 71,
    "trial_length": 8,
    "click_num": 5,
    "RT": 570,
    "action": 0,
    "reward": 3.6
  },
  {
    "phase": "TASK",
    "condition": "Cond3",
    "trial_num": 71,
    "trial_length": 8,
    "click_num": 6,
    "RT": 565,
    "action": 0,
    "reward": 3.6
  },
  {
    "phase": "TASK",
    "condition": "Cond3",
    "trial_num": 71,
    "trial_length": 8,
    "click_num": 7,
    "RT": 633,
    "action": 0,
    "reward": 3.6
  },
  {
    "phase": "TASK",
    "condition": "Cond3",
    "trial_num": 71,
    "trial_length": 8,
    "click_num": 8,
    "RT": 1400,
    "action": 0,
    "reward": 3.6
  },
  {
    "phase": "TASK",
    "condition": "Cond3",
    "trial_num": 72,
    "trial_length": 9,
    "click_num": 1,
    "RT": 1512,
    "action": 1,
    "reward": 2
  },
  {
    "phase": "TASK",
    "condition": "Cond3",
    "trial_num": 72,
    "trial_length": 9,
    "click_num": 2,
    "RT": 1160,
    "action": 1,
    "reward": 3.2
  },
  {
    "phase": "TASK",
    "condition": "Cond3",
    "trial_num": 72,
    "trial_length": 9,
    "click_num": 3,
    "RT": 1137,
    "action": 1,
    "reward": 3.6
  },
  {
    "phase": "TASK",
    "condition": "Cond3",
    "trial_num": 72,
    "trial_length": 9,
    "click_num": 4,
    "RT": 1237,
    "action": 0,
    "reward": 3.6
  },
  {
    "phase": "TASK",
    "condition": "Cond3",
    "trial_num": 72,
    "trial_length": 9,
    "click_num": 5,
    "RT": 656,
    "action": 0,
    "reward": 3.6
  },
  {
    "phase": "TASK",
    "condition": "Cond3",
    "trial_num": 72,
    "trial_length": 9,
    "click_num": 6,
    "RT": 2435,
    "action": 0,
    "reward": 3.6
  },
  {
    "phase": "TASK",
    "condition": "Cond3",
    "trial_num": 72,
    "trial_length": 9,
    "click_num": 7,
    "RT": 863,
    "action": 0,
    "reward": 3.6
  },
  {
    "phase": "TASK",
    "condition": "Cond3",
    "trial_num": 72,
    "trial_length": 9,
    "click_num": 8,
    "RT": 702,
    "action": 0,
    "reward": 3.6
  },
  {
    "phase": "TASK",
    "condition": "Cond3",
    "trial_num": 72,
    "trial_length": 9,
    "click_num": 9,
    "RT": 687,
    "action": 0,
    "reward": 3.6
  },
  {
    "phase": "TASK",
    "condition": "Cond3",
    "trial_num": 73,
    "trial_length": 8,
    "click_num": 1,
    "RT": 1433,
    "action": 1,
    "reward": 3.6
  },
  {
    "phase": "TASK",
    "condition": "Cond3",
    "trial_num": 73,
    "trial_length": 8,
    "click_num": 2,
    "RT": 1448,
    "action": 0,
    "reward": 3.6
  },
  {
    "phase": "TASK",
    "condition": "Cond3",
    "trial_num": 73,
    "trial_length": 8,
    "click_num": 3,
    "RT": 681,
    "action": 0,
    "reward": 3.6
  },
  {
    "phase": "TASK",
    "condition": "Cond3",
    "trial_num": 73,
    "trial_length": 8,
    "click_num": 4,
    "RT": 1366,
    "action": 0,
    "reward": 3.6
  },
  {
    "phase": "TASK",
    "condition": "Cond3",
    "trial_num": 73,
    "trial_length": 8,
    "click_num": 5,
    "RT": 680,
    "action": 0,
    "reward": 3.6
  },
  {
    "phase": "TASK",
    "condition": "Cond3",
    "trial_num": 73,
    "trial_length": 8,
    "click_num": 6,
    "RT": 631,
    "action": 0,
    "reward": 3.6
  },
  {
    "phase": "TASK",
    "condition": "Cond3",
    "trial_num": 73,
    "trial_length": 8,
    "click_num": 7,
    "RT": 1426,
    "action": 0,
    "reward": 3.6
  },
  {
    "phase": "TASK",
    "condition": "Cond3",
    "trial_num": 73,
    "trial_length": 8,
    "click_num": 8,
    "RT": 657,
    "action": 0,
    "reward": 3.6
  },
  {
    "phase": "TASK",
    "condition": "Cond3",
    "trial_num": 74,
    "trial_length": 8,
    "click_num": 1,
    "RT": 1413,
    "action": 1,
    "reward": 3.3
  },
  {
    "phase": "TASK",
    "condition": "Cond3",
    "trial_num": 74,
    "trial_length": 8,
    "click_num": 2,
    "RT": 1402,
    "action": 1,
    "reward": 1.8
  },
  {
    "phase": "TASK",
    "condition": "Cond3",
    "trial_num": 74,
    "trial_length": 8,
    "click_num": 3,
    "RT": 1144,
    "action": 1,
    "reward": 2.9
  },
  {
    "phase": "TASK",
    "condition": "Cond3",
    "trial_num": 74,
    "trial_length": 8,
    "click_num": 4,
    "RT": 1007,
    "action": 1,
    "reward": 2.3
  },
  {
    "phase": "TASK",
    "condition": "Cond3",
    "trial_num": 74,
    "trial_length": 8,
    "click_num": 5,
    "RT": 1175,
    "action": 1,
    "reward": 2.8
  },
  {
    "phase": "TASK",
    "condition": "Cond3",
    "trial_num": 74,
    "trial_length": 8,
    "click_num": 6,
    "RT": 1508,
    "action": 1,
    "reward": 3.2
  },
  {
    "phase": "TASK",
    "condition": "Cond3",
    "trial_num": 74,
    "trial_length": 8,
    "click_num": 7,
    "RT": 1285,
    "action": 1,
    "reward": 2.7
  },
  {
    "phase": "TASK",
    "condition": "Cond3",
    "trial_num": 74,
    "trial_length": 8,
    "click_num": 8,
    "RT": 1047,
    "action": 1,
    "reward": 3
  },
  {
    "phase": "TASK",
    "condition": "Cond3",
    "trial_num": 75,
    "trial_length": 10,
    "click_num": 1,
    "RT": 1465,
    "action": 1,
    "reward": 3.5
  },
  {
    "phase": "TASK",
    "condition": "Cond3",
    "trial_num": 75,
    "trial_length": 10,
    "click_num": 2,
    "RT": 1831,
    "action": 0,
    "reward": 3.5
  },
  {
    "phase": "TASK",
    "condition": "Cond3",
    "trial_num": 75,
    "trial_length": 10,
    "click_num": 3,
    "RT": 593,
    "action": 0,
    "reward": 3.5
  },
  {
    "phase": "TASK",
    "condition": "Cond3",
    "trial_num": 75,
    "trial_length": 10,
    "click_num": 4,
    "RT": 606,
    "action": 0,
    "reward": 3.5
  },
  {
    "phase": "TASK",
    "condition": "Cond3",
    "trial_num": 75,
    "trial_length": 10,
    "click_num": 5,
    "RT": 1248,
    "action": 0,
    "reward": 3.5
  },
  {
    "phase": "TASK",
    "condition": "Cond3",
    "trial_num": 75,
    "trial_length": 10,
    "click_num": 6,
    "RT": 640,
    "action": 0,
    "reward": 3.5
  },
  {
    "phase": "TASK",
    "condition": "Cond3",
    "trial_num": 75,
    "trial_length": 10,
    "click_num": 7,
    "RT": 768,
    "action": 0,
    "reward": 3.5
  },
  {
    "phase": "TASK",
    "condition": "Cond3",
    "trial_num": 75,
    "trial_length": 10,
    "click_num": 8,
    "RT": 713,
    "action": 0,
    "reward": 3.5
  },
  {
    "phase": "TASK",
    "condition": "Cond3",
    "trial_num": 75,
    "trial_length": 10,
    "click_num": 9,
    "RT": 887,
    "action": 0,
    "reward": 3.5
  },
  {
    "phase": "TASK",
    "condition": "Cond3",
    "trial_num": 75,
    "trial_length": 10,
    "click_num": 10,
    "RT": 824,
    "action": 0,
    "reward": 3.5
  },
  {
    "phase": "TASK",
    "condition": "Cond3",
    "trial_num": 76,
    "trial_length": 7,
    "click_num": 1,
    "RT": 2129,
    "action": 1,
    "reward": 1.8
  },
  {
    "phase": "TASK",
    "condition": "Cond3",
    "trial_num": 76,
    "trial_length": 7,
    "click_num": 2,
    "RT": 2305,
    "action": 1,
    "reward": 2.4
  },
  {
    "phase": "TASK",
    "condition": "Cond3",
    "trial_num": 76,
    "trial_length": 7,
    "click_num": 3,
    "RT": 1694,
    "action": 1,
    "reward": 3.4
  },
  {
    "phase": "TASK",
    "condition": "Cond3",
    "trial_num": 76,
    "trial_length": 7,
    "click_num": 4,
    "RT": 1696,
    "action": 1,
    "reward": 3.8
  },
  {
    "phase": "TASK",
    "condition": "Cond3",
    "trial_num": 76,
    "trial_length": 7,
    "click_num": 5,
    "RT": 1304,
    "action": 0,
    "reward": 3.8
  },
  {
    "phase": "TASK",
    "condition": "Cond3",
    "trial_num": 76,
    "trial_length": 7,
    "click_num": 6,
    "RT": 712,
    "action": 0,
    "reward": 3.8
  },
  {
    "phase": "TASK",
    "condition": "Cond3",
    "trial_num": 76,
    "trial_length": 7,
    "click_num": 7,
    "RT": 623,
    "action": 0,
    "reward": 3.8
  },
  {
    "phase": "TASK",
    "condition": "Cond3",
    "trial_num": 77,
    "trial_length": 9,
    "click_num": 1,
    "RT": 1254,
    "action": 1,
    "reward": 2.8
  },
  {
    "phase": "TASK",
    "condition": "Cond3",
    "trial_num": 77,
    "trial_length": 9,
    "click_num": 2,
    "RT": 1497,
    "action": 1,
    "reward": 3.2
  },
  {
    "phase": "TASK",
    "condition": "Cond3",
    "trial_num": 77,
    "trial_length": 9,
    "click_num": 3,
    "RT": 1326,
    "action": 1,
    "reward": 2.8
  },
  {
    "phase": "TASK",
    "condition": "Cond3",
    "trial_num": 77,
    "trial_length": 9,
    "click_num": 4,
    "RT": 968,
    "action": 1,
    "reward": 3.1
  },
  {
    "phase": "TASK",
    "condition": "Cond3",
    "trial_num": 77,
    "trial_length": 9,
    "click_num": 5,
    "RT": 944,
    "action": 1,
    "reward": 3.7
  },
  {
    "phase": "TASK",
    "condition": "Cond3",
    "trial_num": 77,
    "trial_length": 9,
    "click_num": 6,
    "RT": 1233,
    "action": 0,
    "reward": 3.7
  },
  {
    "phase": "TASK",
    "condition": "Cond3",
    "trial_num": 77,
    "trial_length": 9,
    "click_num": 7,
    "RT": 864,
    "action": 0,
    "reward": 3.7
  },
  {
    "phase": "TASK",
    "condition": "Cond3",
    "trial_num": 77,
    "trial_length": 9,
    "click_num": 8,
    "RT": 693,
    "action": 0,
    "reward": 3.7
  },
  {
    "phase": "TASK",
    "condition": "Cond3",
    "trial_num": 77,
    "trial_length": 9,
    "click_num": 9,
    "RT": 850,
    "action": 0,
    "reward": 3.7
  },
  {
    "phase": "TASK",
    "condition": "Cond3",
    "trial_num": 78,
    "trial_length": 5,
    "click_num": 1,
    "RT": 1896,
    "action": 1,
    "reward": 3.5
  },
  {
    "phase": "TASK",
    "condition": "Cond3",
    "trial_num": 78,
    "trial_length": 5,
    "click_num": 2,
    "RT": 1297,
    "action": 0,
    "reward": 3.5
  },
  {
    "phase": "TASK",
    "condition": "Cond3",
    "trial_num": 78,
    "trial_length": 5,
    "click_num": 3,
    "RT": 647,
    "action": 0,
    "reward": 3.5
  },
  {
    "phase": "TASK",
    "condition": "Cond3",
    "trial_num": 78,
    "trial_length": 5,
    "click_num": 4,
