[
  {
    "phase": "TASK",
    "condition": "Cond3",
    "trial_num": 1,
    "trial_length": 5,
    "click_num": 1,
    "RT": 5391,
    "action": 1,
    "reward": 2.1
  },
  {
    "phase": "TASK",
    "condition": "Cond3",
    "trial_num": 1,
    "trial_length": 5,
    "click_num": 2,
    "RT": 4074,
    "action": 1,
    "reward": 4.2
  },
  {
    "phase": "TASK",
    "condition": "Cond3",
    "trial_num": 1,
    "trial_length": 5,
    "click_num": 3,
    "RT": 3295,
    "action": 1,
    "reward": 2.9
  },
  {
    "phase": "TASK",
    "condition": "Cond3",
    "trial_num": 1,
    "trial_length": 5,
    "click_num": 4,
    "RT": 9523,
    "action": 0,
    "reward": 4.2
  },
  {
    "phase": "TASK",
    "condition": "Cond3",
    "trial_num": 1,
    "trial_length": 5,
    "click_num": 5,
    "RT": 1829,
    "action": 0,
    "reward": 4.2
  },
  {
    "phase": "TASK",
    "condition": "Cond3",
    "trial_num": 2,
    "trial_length": 8,
    "click_num": 1,
    "RT": 5350,
    "action": 1,
    "reward": 2.9
  },
  {
    "phase": "TASK",
    "condition": "Cond3",
    "trial_num": 2,
    "trial_length": 8,
    "click_num": 2,
    "RT": 13984,
    "action": 1,
    "reward": 4.2
  },
  {
    "phase": "TASK",
    "condition": "Cond3",
    "trial_num": 2,
    "trial_length": 8,
    "click_num": 3,
    "RT": 2875,
    "action": 1,
    "reward": 3.3
  },
  {
    "phase": "TASK",
    "condition": "Cond3",
    "trial_num": 2,
    "trial_length": 8,
    "click_num": 4,
    "RT": 3132,
    "action": 1,
    "reward": 3.3
  },
  {
    "phase": "TASK",
    "condition": "Cond3",
    "trial_num": 2,
    "trial_length": 8,
    "click_num": 5,
    "RT": 4002,
    "action": 1,
    "reward": 2.4
  },
  {
    "phase": "TASK",
    "condition": "Cond3",
    "trial_num": 2,
    "trial_length": 8,
    "click_num": 6,
    "RT": 1918,
    "action": 1,
    "reward": 3.1
  },
  {
    "phase": "TASK",
    "condition": "Cond3",
    "trial_num": 2,
    "trial_length": 8,
    "click_num": 7,
    "RT": 1872,
    "action": 1,
    "reward": 2.6
  },
  {
    "phase": "TASK",
    "condition": "Cond3",
    "trial_num": 2,
    "trial_length": 8,
    "click_num": 8,
    "RT": 2785,
    "action": 1,
    "reward": 3.1
  },
  {
    "phase": "TASK",
    "condition": "Cond3",
    "trial_num": 3,
    "trial_length": 7,
    "click_num": 1,
    "RT": 2247,
    "action": 1,
    "reward": 1.5
  },
  {
    "phase": "TASK",
    "condition": "Cond3",
    "trial_num": 3,
    "trial_length": 7,
    "click_num": 2,
    "RT": 1976,
    "action": 1,
    "reward": 3.2
  },
  {
    "phase": "TASK",
    "condition": "Cond3",
    "trial_num": 3,
    "trial_length": 7,
    "click_num": 3,
    "RT": 1352,
    "action": 1,
    "reward": 3.6
  },
  {
    "phase": "TASK",
    "condition": "Cond3",
    "trial_num": 3,
    "trial_length": 7,
    "click_num": 4,
    "RT": 1320,
    "action": 1,
    "reward": 1.8
  },
  {
    "phase": "TASK",
    "condition": "Cond3",
    "trial_num": 3,
    "trial_length": 7,
    "click_num": 5,
    "RT": 1504,
    "action": 1,
    "reward": 3.1
  },
  {
    "phase": "TASK",
    "condition": "Cond3",
    "trial_num": 3,
    "trial_length": 7,
    "click_num": 6,
    "RT": 4656,
    "action": 1,
    "reward": 2.6
  },
  {
    "phase": "TASK",
    "condition": "Cond3",
    "trial_num": 3,
    "trial_length": 7,
    "click_num": 7,
    "RT": 2127,
    "action": 1,
    "reward": 2.9
  },
  {
    "phase": "TASK",
    "condition": "Cond3",
    "trial_num": 4,
    "trial_length": 7,
    "click_num": 1,
    "RT": 3208,
    "action": 1,
    "reward": 3.6
  },
  {
    "phase": "TASK",
    "condition": "Cond3",
    "trial_num": 4,
    "trial_length": 7,
    "click_num": 2,
    "RT": 3231,
    "action": 1,
    "reward": 2.6
  },
  {
    "phase": "TASK",
    "condition": "Cond3",
    "trial_num": 4,
    "trial_length": 7,
    "click_num": 3,
    "RT": 1064,
    "action": 1,
    "reward": 3.2
  },
  {
    "phase": "TASK",
    "condition": "Cond3",
    "trial_num": 4,
    "trial_length": 7,
    "click_num": 4,
    "RT": 1192,
    "action": 1,
    "reward": 3.7
  },
  {
    "phase": "TASK",
    "condition": "Cond3",
    "trial_num": 4,
    "trial_length": 7,
    "click_num": 5,
    "RT": 2704,
    "action": 0,
    "reward": 3.7
  },
  {
    "phase": "TASK",
    "condition": "Cond3",
    "trial_num": 4,
    "trial_length": 7,
    "click_num": 6,
    "RT": 1009,
    "action": 0,
    "reward": 3.7
  },
  {
    "phase": "TASK",
    "condition": "Cond3",
    "trial_num": 4,
    "trial_length": 7,
    "click_num": 7,
    "RT": 1055,
    "action": 0,
    "reward": 3.7
  },
  {
    "phase": "TASK",
    "condition": "Cond3",
    "trial_num": 5,
    "trial_length": 9,
    "click_num": 1,
    "RT": 2558,
    "action": 1,
    "reward": 3.5
  },
  {
    "phase": "TASK",
    "condition": "Cond3",
    "trial_num": 5,
    "trial_length": 9,
    "click_num": 2,
    "RT": 2081,
    "action": 1,
    "reward": 3.7
  },
  {
    "phase": "TASK",
    "condition": "Cond3",
    "trial_num": 5,
    "trial_length": 9,
    "click_num": 3,
    "RT": 1231,
    "action": 1,
    "reward": 3.4
  },
  {
    "phase": "TASK",
    "condition": "Cond3",
    "trial_num": 5,
    "trial_length": 9,
    "click_num": 4,
    "RT": 1545,
    "action": 1,
    "reward": 3.7
  },
  {
    "phase": "TASK",
    "condition": "Cond3",
    "trial_num": 5,
    "trial_length": 9,
    "click_num": 5,
    "RT": 1368,
    "action": 1,
    "reward": 2.6
  },
  {
    "phase": "TASK",
    "condition": "Cond3",
    "trial_num": 5,
    "trial_length": 9,
    "click_num": 6,
    "RT": 1544,
    "action": 1,
    "reward": 2.8
  },
  {
    "phase": "TASK",
    "condition": "Cond3",
    "trial_num": 5,
    "trial_length": 9,
    "click_num": 7,
    "RT": 2046,
    "action": 1,
    "reward": 4.4
  },
  {
    "phase": "TASK",
    "condition": "Cond3",
    "trial_num": 5,
    "trial_length": 9,
    "click_num": 8,
    "RT": 2523,
    "action": 0,
    "reward": 4.4
  },
  {
    "phase": "TASK",
    "condition": "Cond3",
    "trial_num": 5,
    "trial_length": 9,
    "click_num": 9,
    "RT": 1695,
    "action": 0,
    "reward": 4.4
  },
  {
    "phase": "TASK",
    "condition": "Cond3",
    "trial_num": 6,
    "trial_length": 6,
    "click_num": 1,
    "RT": 1767,
    "action": 1,
    "reward": 2.6
  },
  {
    "phase": "TASK",
    "condition": "Cond3",
    "trial_num": 6,
    "trial_length": 6,
    "click_num": 2,
    "RT": 3170,
    "action": 1,
    "reward": 2.2
  },
  {
    "phase": "TASK",
    "condition": "Cond3",
    "trial_num": 6,
    "trial_length": 6,
    "click_num": 3,
    "RT": 1086,
    "action": 1,
    "reward": 2.6
  },
  {
    "phase": "TASK",
    "condition": "Cond3",
    "trial_num": 6,
    "trial_length": 6,
    "click_num": 4,
    "RT": 1080,
    "action": 1,
    "reward": 3.3
  },
  {
    "phase": "TASK",
    "condition": "Cond3",
    "trial_num": 6,
    "trial_length": 6,
    "click_num": 5,
    "RT": 1639,
    "action": 1,
    "reward": 2.2
  },
  {
    "phase": "TASK",
    "condition": "Cond3",
    "trial_num": 6,
    "trial_length": 6,
    "click_num": 6,
    "RT": 1384,
    "action": 1,
    "reward": 3.3
  },
  {
    "phase": "TASK",
    "condition": "Cond3",
    "trial_num": 7,
    "trial_length": 5,
    "click_num": 1,
    "RT": 1301,
    "action": 1,
    "reward": 2.5
  },
  {
    "phase": "TASK",
    "condition": "Cond3",
    "trial_num": 7,
    "trial_length": 5,
    "click_num": 2,
    "RT": 1779,
    "action": 1,
    "reward": 1.7
  },
  {
    "phase": "TASK",
    "condition": "Cond3",
    "trial_num": 7,
    "trial_length": 5,
    "click_num": 3,
    "RT": 1302,
    "action": 1,
    "reward": 3.1
  },
  {
    "phase": "TASK",
    "condition": "Cond3",
    "trial_num": 7,
    "trial_length": 5,
    "click_num": 4,
    "RT": 1744,
    "action": 1,
    "reward": 2.9
  },
  {
    "phase": "TASK",
    "condition": "Cond3",
    "trial_num": 7,
    "trial_length": 5,
    "click_num": 5,
    "RT": 2616,
    "action": 1,
    "reward": 3.8
  },
  {
    "phase": "TASK",
    "condition": "Cond3",
    "trial_num": 8,
    "trial_length": 7,
    "click_num": 1,
    "RT": 1406,
    "action": 1,
    "reward": 2.8
  },
  {
    "phase": "TASK",
    "condition": "Cond3",
    "trial_num": 8,
    "trial_length": 7,
    "click_num": 2,
    "RT": 2208,
    "action": 1,
    "reward": 2.7
  },
  {
    "phase": "TASK",
    "condition": "Cond3",
    "trial_num": 8,
    "trial_length": 7,
    "click_num": 3,
    "RT": 1215,
    "action": 1,
    "reward": 2.3
  },
  {
    "phase": "TASK",
    "condition": "Cond3",
    "trial_num": 8,
    "trial_length": 7,
    "click_num": 4,
    "RT": 1257,
    "action": 1,
    "reward": 3.2
  },
  {
    "phase": "TASK",
    "condition": "Cond3",
    "trial_num": 8,
    "trial_length": 7,
    "click_num": 5,
    "RT": 1754,
    "action": 1,
    "reward": 3.8
  },
  {
    "phase": "TASK",
    "condition": "Cond3",
    "trial_num": 8,
    "trial_length": 7,
    "click_num": 6,
    "RT": 1285,
    "action": 1,
    "reward": 2.6
  },
  {
    "phase": "TASK",
    "condition": "Cond3",
    "trial_num": 8,
    "trial_length": 7,
    "click_num": 7,
    "RT": 1449,
    "action": 0,
    "reward": 3.8
  },
  {
    "phase": "TASK",
    "condition": "Cond3",
    "trial_num": 9,
    "trial_length": 7,
    "click_num": 1,
    "RT": 1193,
    "action": 1,
    "reward": 2.2
  },
  {
    "phase": "TASK",
    "condition": "Cond3",
    "trial_num": 9,
    "trial_length": 7,
    "click_num": 2,
    "RT": 4157,
    "action": 1,
    "reward": 3.9
  },
  {
    "phase": "TASK",
    "condition": "Cond3",
    "trial_num": 9,
    "trial_length": 7,
    "click_num": 3,
    "RT": 2289,
    "action": 0,
    "reward": 3.9
  },
  {
    "phase": "TASK",
    "condition": "Cond3",
    "trial_num": 9,
    "trial_length": 7,
    "click_num": 4,
    "RT": 1248,
    "action": 0,
    "reward": 3.9
  },
  {
    "phase": "TASK",
    "condition": "Cond3",
    "trial_num": 9,
    "trial_length": 7,
    "click_num": 5,
    "RT": 1648,
    "action": 0,
    "reward": 3.9
  },
  {
    "phase": "TASK",
    "condition": "Cond3",
    "trial_num": 9,
    "trial_length": 7,
    "click_num": 6,
    "RT": 1087,
    "action": 0,
    "reward": 3.9
  },
  {
    "phase": "TASK",
    "condition": "Cond3",
    "trial_num": 9,
    "trial_length": 7,
    "click_num": 7,
    "RT": 1016,
    "action": 0,
    "reward": 3.9
  },
  {
    "phase": "TASK",
    "condition": "Cond3",
    "trial_num": 10,
    "trial_length": 9,
    "click_num": 1,
    "RT": 1304,
    "action": 1,
    "reward": 3.4
  },
  {
    "phase": "TASK",
    "condition": "Cond3",
    "trial_num": 10,
    "trial_length": 9,
    "click_num": 2,
    "RT": 1679,
    "action": 1,
    "reward": 2.5
  },
  {
    "phase": "TASK",
    "condition": "Cond3",
    "trial_num": 10,
    "trial_length": 9,
    "click_num": 3,
    "RT": 1136,
    "action": 1,
    "reward": 3.6
  },
  {
    "phase": "TASK",
    "condition": "Cond3",
    "trial_num": 10,
    "trial_length": 9,
    "click_num": 4,
    "RT": 2185,
    "action": 0,
    "reward": 3.6
  },
  {
    "phase": "TASK",
    "condition": "Cond3",
    "trial_num": 10,
    "trial_length": 9,
    "click_num": 5,
    "RT": 1120,
    "action": 0,
    "reward": 3.6
  },
  {
    "phase": "TASK",
    "condition": "Cond3",
    "trial_num": 10,
    "trial_length": 9,
    "click_num": 6,
    "RT": 1024,
    "action": 0,
    "reward": 3.6
  },
  {
    "phase": "TASK",
    "condition": "Cond3",
    "trial_num": 10,
    "trial_length": 9,
    "click_num": 7,
    "RT": 1104,
    "action": 0,
    "reward": 3.6
  },
  {
    "phase": "TASK",
    "condition": "Cond3",
    "trial_num": 10,
    "trial_length": 9,
    "click_num": 8,
    "RT": 1031,
    "action": 0,
    "reward": 3.6
  },
  {
    "phase": "TASK",
    "condition": "Cond3",
    "trial_num": 10,
    "trial_length": 9,
    "click_num": 9,
    "RT": 1903,
    "action": 1,
    "reward": 2
  },
  {
    "phase": "TASK",
    "condition": "Cond3",
    "trial_num": 11,
    "trial_length": 8,
    "click_num": 1,
    "RT": 2580,
    "action": 1,
    "reward": 3.1
  },
  {
    "phase": "TASK",
    "condition": "Cond3",
    "trial_num": 11,
    "trial_length": 8,
    "click_num": 2,
    "RT": 1416,
    "action": 1,
    "reward": 2.8
  },
  {
    "phase": "TASK",
    "condition": "Cond3",
    "trial_num": 11,
    "trial_length": 8,
    "click_num": 3,
    "RT": 1472,
    "action": 1,
    "reward": 2.7
  },
  {
    "phase": "TASK",
    "condition": "Cond3",
    "trial_num": 11,
    "trial_length": 8,
    "click_num": 4,
    "RT": 976,
    "action": 1,
    "reward": 2.5
  },
  {
    "phase": "TASK",
    "condition": "Cond3",
    "trial_num": 11,
    "trial_length": 8,
    "click_num": 5,
    "RT": 937,
    "action": 1,
    "reward": 2.5
  },
  {
    "phase": "TASK",
    "condition": "Cond3",
    "trial_num": 11,
    "trial_length": 8,
    "click_num": 6,
    "RT": 1215,
    "action": 1,
    "reward": 3.8
  },
  {
    "phase": "TASK",
    "condition": "Cond3",
    "trial_num": 11,
    "trial_length": 8,
    "click_num": 7,
    "RT": 1777,
    "action": 0,
    "reward": 3.8
  },
  {
    "phase": "TASK",
    "condition": "Cond3",
    "trial_num": 11,
    "trial_length": 8,
    "click_num": 8,
    "RT": 990,
    "action": 0,
    "reward": 3.8
  },
  {
    "phase": "TASK",
    "condition": "Cond3",
    "trial_num": 12,
    "trial_length": 7,
    "click_num": 1,
    "RT": 1026,
    "action": 1,
    "reward": 3.4
  },
  {
    "phase": "TASK",
    "condition": "Cond3",
    "trial_num": 12,
    "trial_length": 7,
    "click_num": 2,
    "RT": 1544,
    "action": 1,
    "reward": 3.2
  },
  {
    "phase": "TASK",
    "condition": "Cond3",
    "trial_num": 12,
    "trial_length": 7,
    "click_num": 3,
    "RT": 1265,
    "action": 1,
    "reward": 2.2
  },
  {
    "phase": "TASK",
    "condition": "Cond3",
    "trial_num": 12,
    "trial_length": 7,
    "click_num": 4,
    "RT": 1550,
    "action": 1,
    "reward": 3.3
  },
  {
    "phase": "TASK",
    "condition": "Cond3",
    "trial_num": 12,
    "trial_length": 7,
    "click_num": 5,
    "RT": 1353,
    "action": 1,
    "reward": 2.7
  },
  {
    "phase": "TASK",
    "condition": "Cond3",
    "trial_num": 12,
    "trial_length": 7,
    "click_num": 6,
    "RT": 1248,
    "action": 1,
    "reward": 2.4
  },
  {
    "phase": "TASK",
    "condition": "Cond3",
    "trial_num": 12,
    "trial_length": 7,
    "click_num": 7,
    "RT": 1504,
    "action": 0,
    "reward": 3.4
  },
  {
    "phase": "TASK",
    "condition": "Cond3",
    "trial_num": 13,
    "trial_length": 7,
    "click_num": 1,
    "RT": 1398,
    "action": 1,
    "reward": 2.6
  },
  {
    "phase": "TASK",
    "condition": "Cond3",
    "trial_num": 13,
    "trial_length": 7,
    "click_num": 2,
    "RT": 1139,
    "action": 1,
    "reward": 2.7
  },
  {
    "phase": "TASK",
    "condition": "Cond3",
    "trial_num": 13,
    "trial_length": 7,
    "click_num": 3,
    "RT": 1285,
    "action": 1,
    "reward": 1.8
  },
  {
    "phase": "TASK",
    "condition": "Cond3",
    "trial_num": 13,
    "trial_length": 7,
    "click_num": 4,
    "RT": 1457,
    "action": 1,
    "reward": 2.3
  },
  {
    "phase": "TASK",
    "condition": "Cond3",
    "trial_num": 13,
    "trial_length": 7,
    "click_num": 5,
    "RT": 1391,
    "action": 1,
    "reward": 1.6
  },
  {
    "phase": "TASK",
    "condition": "Cond3",
    "trial_num": 13,
    "trial_length": 7,
    "click_num": 6,
    "RT": 1441,
    "action": 1,
    "reward": 3
  },
  {
    "phase": "TASK",
    "condition": "Cond3",
    "trial_num": 13,
    "trial_length": 7,
    "click_num": 7,
    "RT": 1424,
    "action": 0,
    "reward": 3
  },
  {
    "phase": "TASK",
    "condition": "Cond3",
    "trial_num": 14,
    "trial_length": 6,
    "click_num": 1,
    "RT": 2081,
    "action": 1,
    "reward": 3.6
  },
  {
    "phase": "TASK",
    "condition": "Cond3",
    "trial_num": 14,
    "trial_length": 6,
    "click_num": 2,
    "RT": 3821,
    "action": 1,
    "reward": 2.7
  },
  {
    "phase": "TASK",
    "condition": "Cond3",
    "trial_num": 14,
    "trial_length": 6,
    "click_num": 3,
    "RT": 1753,
    "action": 0,
    "reward": 3.6
  },
  {
    "phase": "TASK",
    "condition": "Cond3",
    "trial_num": 14,
    "trial_length": 6,
    "click_num": 4,
    "RT": 1359,
    "action": 0,
    "reward": 3.6
  },
  {
    "phase": "TASK",
    "condition": "Cond3",
    "trial_num": 14,
    "trial_length": 6,
    "click_num": 5,
    "RT": 763,
    "action": 1,
    "reward": 3
  },
  {
    "phase": "TASK",
    "condition": "Cond3",
    "trial_num": 14,
    "trial_length": 6,
    "click_num": 6,
    "RT": 1149,
    "action": 0,
    "reward": 3.6
  },
  {
    "phase": "TASK",
    "condition": "Cond3",
    "trial_num": 15,
    "trial_length": 6,
    "click_num": 1,
    "RT": 1638,
    "action": 1,
    "reward": 2.8
  },
  {
    "phase": "TASK",
    "condition": "Cond3",
    "trial_num": 15,
    "trial_length": 6,
    "click_num": 2,
    "RT": 2953,
    "action": 1,
    "reward": 4
  },
  {
    "phase": "TASK",
    "condition": "Cond3",
    "trial_num": 15,
    "trial_length": 6,
    "click_num": 3,
    "RT": 1584,
    "action": 0,
    "reward": 4
  },
  {
    "phase": "TASK",
    "condition": "Cond3",
    "trial_num": 15,
    "trial_length": 6,
    "click_num": 4,
    "RT": 751,
    "action": 0,
    "reward": 4
  },
  {
    "phase": "TASK",
    "condition": "Cond3",
    "trial_num": 15,
    "trial_length": 6,
    "click_num": 5,
    "RT": 744,
    "action": 0,
    "reward": 4
  },
  {
    "phase": "TASK",
    "condition": "Cond3",
    "trial_num": 15,
    "trial_length": 6,
    "click_num": 6,
    "RT": 1088,
    "action": 0,
    "reward": 4
  },
  {
    "phase": "TASK",
    "condition": "Cond3",
    "trial_num": 16,
    "trial_length": 6,
    "click_num": 1,
    "RT": 1190,
    "action": 1,
    "reward": 2.8
  },
  {
    "phase": "TASK",
    "condition": "Cond3",
    "trial_num": 16,
    "trial_length": 6,
    "click_num": 2,
    "RT": 1928,
    "action": 1,
    "reward": 3.2
  },
  {
    "phase": "TASK",
    "condition": "Cond3",
    "trial_num": 16,
    "trial_length": 6,
    "click_num": 3,
    "RT": 1648,
    "action": 0,
    "reward": 3.2
  },
  {
    "phase": "TASK",
    "condition": "Cond3",
    "trial_num": 16,
    "trial_length": 6,
    "click_num": 4,
    "RT": 951,
    "action": 0,
    "reward": 3.2
  },
  {
    "phase": "TASK",
    "condition": "Cond3",
    "trial_num": 16,
    "trial_length": 6,
    "click_num": 5,
    "RT": 1097,
    "action": 0,
    "reward": 3.2
  },
  {
    "phase": "TASK",
    "condition": "Cond3",
    "trial_num": 16,
    "trial_length": 6,
    "click_num": 6,
    "RT": 865,
    "action": 0,
    "reward": 3.2
  },
  {
    "phase": "TASK",
    "condition": "Cond3",
    "trial_num": 17,
    "trial_length": 7,
    "click_num": 1,
    "RT": 1174,
    "action": 1,
    "reward": 2.9
  },
  {
    "phase": "TASK",
    "condition": "Cond3",
    "trial_num": 17,
    "trial_length": 7,
    "click_num": 2,
    "RT": 1667,
    "action": 1,
    "reward": 3.6
  },
  {
    "phase": "TASK",
    "condition": "Cond3",
    "trial_num": 17,
    "trial_length": 7,
    "click_num": 3,
    "RT": 1422,
    "action": 1,
    "reward": 3.5
  },
  {
    "phase": "TASK",
    "condition": "Cond3",
    "trial_num": 17,
    "trial_length": 7,
    "click_num": 4,
    "RT": 1958,
    "action": 0,
    "reward": 3.6
  },
  {
    "phase": "TASK",
    "condition": "Cond3",
    "trial_num": 17,
    "trial_length": 7,
    "click_num": 5,
    "RT": 961,
    "action": 0,
    "reward": 3.6
  },
  {
    "phase": "TASK",
    "condition": "Cond3",
    "trial_num": 17,
    "trial_length": 7,
    "click_num": 6,
    "RT": 903,
    "action": 1,
    "reward": 3.2
  },
  {
    "phase": "TASK",
    "condition": "Cond3",
    "trial_num": 17,
    "trial_length": 7,
    "click_num": 7,
    "RT": 1089,
    "action": 0,
    "reward": 3.6
  },
  {
    "phase": "TASK",
    "condition": "Cond3",
    "trial_num": 18,
    "trial_length": 7,
    "click_num": 1,
    "RT": 1364,
    "action": 1,
    "reward": 3.1
  },
  {
    "phase": "TASK",
    "condition": "Cond3",
    "trial_num": 18,
    "trial_length": 7,
    "click_num": 2,
    "RT": 1473,
    "action": 1,
    "reward": 1.8
  },
  {
    "phase": "TASK",
    "condition": "Cond3",
    "trial_num": 18,
    "trial_length": 7,
    "click_num": 3,
    "RT": 1144,
    "action": 1,
    "reward": 2.8
  },
  {
    "phase": "TASK",
    "condition": "Cond3",
    "trial_num": 18,
    "trial_length": 7,
    "click_num": 4,
    "RT": 1186,
    "action": 1,
    "reward": 3.1
  },
  {
    "phase": "TASK",
    "condition": "Cond3",
    "trial_num": 18,
    "trial_length": 7,
    "click_num": 5,
    "RT": 2407,
    "action": 1,
    "reward": 3.9
  },
  {
    "phase": "TASK",
    "condition": "Cond3",
    "trial_num": 18,
    "trial_length": 7,
    "click_num": 6,
    "RT": 1480,
    "action": 0,
    "reward": 3.9
  },
  {
    "phase": "TASK",
    "condition": "Cond3",
    "trial_num": 18,
    "trial_length": 7,
    "click_num": 7,
    "RT": 1024,
    "action": 0,
    "reward": 3.9
  },
  {
    "phase": "TASK",
    "condition": "Cond3",
    "trial_num": 19,
    "trial_length": 9,
    "click_num": 1,
    "RT": 1151,
    "action": 1,
    "reward": 2.4
  },
  {
    "phase": "TASK",
    "condition": "Cond3",
    "trial_num": 19,
    "trial_length": 9,
    "click_num": 2,
    "RT": 2302,
    "action": 1,
    "reward": 4
  },
  {
    "phase": "TASK",
    "condition": "Cond3",
    "trial_num": 19,
    "trial_length": 9,
    "click_num": 3,
    "RT": 2442,
    "action": 0,
    "reward": 4
  },
  {
    "phase": "TASK",
    "condition": "Cond3",
    "trial_num": 19,
    "trial_length": 9,
    "click_num": 4,
    "RT": 1918,
    "action": 0,
    "reward": 4
  },
  {
    "phase": "TASK",
    "condition": "Cond3",
    "trial_num": 19,
    "trial_length": 9,
    "click_num": 5,
    "RT": 792,
    "action": 0,
    "reward": 4
  },
  {
    "phase": "TASK",
    "condition": "Cond3",
    "trial_num": 19,
    "trial_length": 9,
    "click_num": 6,
    "RT": 860,
    "action": 0,
    "reward": 4
  },
  {
    "phase": "TASK",
    "condition": "Cond3",
    "trial_num": 19,
    "trial_length": 9,
    "click_num": 7,
    "RT": 853,
    "action": 0,
    "reward": 4
  },
  {
    "phase": "TASK",
    "condition": "Cond3",
    "trial_num": 19,
    "trial_length": 9,
    "click_num": 8,
    "RT": 882,
    "action": 0,
    "reward": 4
  },
  {
    "phase": "TASK",
    "condition": "Cond3",
    "trial_num": 19,
    "trial_length": 9,
    "click_num": 9,
    "RT": 917,
    "action": 0,
    "reward": 4
  },
  {
    "phase": "TASK",
    "condition": "Cond3",
    "trial_num": 20,
    "trial_length": 5,
    "click_num": 1,
    "RT": 1709,
    "action": 1,
    "reward": 2.9
  },
  {
    "phase": "TASK",
    "condition": "Cond3",
    "trial_num": 20,
    "trial_length": 5,
    "click_num": 2,
    "RT": 3416,
    "action": 1,
    "reward": 2.6
  },
  {
    "phase": "TASK",
    "condition": "Cond3",
    "trial_num": 20,
    "trial_length": 5,
    "click_num": 3,
    "RT": 1064,
    "action": 1,
    "reward": 3.7
  },
  {
    "phase": "TASK",
    "condition": "Cond3",
    "trial_num": 20,
    "trial_length": 5,
    "click_num": 4,
    "RT": 1008,
    "action": 0,
    "reward": 3.7
  },
  {
    "phase": "TASK",
    "condition": "Cond3",
    "trial_num": 20,
    "trial_length": 5,
    "click_num": 5,
    "RT": 844,
    "action": 0,
    "reward": 3.7
  },
  {
    "phase": "TASK",
    "condition": "Cond3",
    "trial_num": 21,
    "trial_length": 7,
    "click_num": 1,
    "RT": 1622,
    "action": 1,
    "reward": 3.5
  },
  {
    "phase": "TASK",
    "condition": "Cond3",
    "trial_num": 21,
    "trial_length": 7,
    "click_num": 2,
    "RT": 3209,
    "action": 1,
    "reward": 3.5
  },
  {
    "phase": "TASK",
    "condition": "Cond3",
    "trial_num": 21,
    "trial_length": 7,
    "click_num": 3,
    "RT": 3095,
    "action": 1,
    "reward": 3.5
  },
  {
    "phase": "TASK",
    "condition": "Cond3",
    "trial_num": 21,
    "trial_length": 7,
    "click_num": 4,
    "RT": 2153,
    "action": 1,
    "reward": 3.8
  },
  {
    "phase": "TASK",
    "condition": "Cond3",
    "trial_num": 21,
    "trial_length": 7,
    "click_num": 5,
    "RT": 2711,
    "action": 1,
    "reward": 3.4
  },
  {
    "phase": "TASK",
    "condition": "Cond3",
    "trial_num": 21,
    "trial_length": 7,
    "click_num": 6,
    "RT": 1938,
    "action": 0,
    "reward": 3.8
  },
  {
    "phase": "TASK",
    "condition": "Cond3",
    "trial_num": 21,
    "trial_length": 7,
    "click_num": 7,
    "RT": 862,
    "action": 1,
    "reward": 2.8
  },
  {
    "phase": "TASK",
    "condition": "Cond3",
    "trial_num": 22,
    "trial_length": 8,
    "click_num": 1,
    "RT": 1174,
    "action": 1,
    "reward": 2.5
  },
  {
    "phase": "TASK",
    "condition": "Cond3",
    "trial_num": 22,
    "trial_length": 8,
    "click_num": 2,
    "RT": 1592,
    "action": 1,
    "reward": 2.8
  },
  {
    "phase": "TASK",
    "condition": "Cond3",
    "trial_num": 22,
    "trial_length": 8,
    "click_num": 3,
    "RT": 897,
    "action": 1,
    "reward": 2.4
  },
  {
    "phase": "TASK",
    "condition": "Cond3",
    "trial_num": 22,
    "trial_length": 8,
    "click_num": 4,
    "RT": 999,
    "action": 1,
    "reward": 3.1
  },
  {
    "phase": "TASK",
    "condition": "Cond3",
    "trial_num": 22,
    "trial_length": 8,
    "click_num": 5,
    "RT": 1514,
    "action": 1,
    "reward": 3
  },
  {
    "phase": "TASK",
    "condition": "Cond3",
    "trial_num": 22,
    "trial_length": 8,
    "click_num": 6,
    "RT": 1750,
    "action": 1,
    "reward": 3.8
  },
  {
    "phase": "TASK",
    "condition": "Cond3",
    "trial_num": 22,
    "trial_length": 8,
    "click_num": 7,
    "RT": 1105,
    "action": 0,
    "reward": 3.8
  },
  {
    "phase": "TASK",
    "condition": "Cond3",
    "trial_num": 22,
    "trial_length": 8,
    "click_num": 8,
    "RT": 839,
    "action": 0,
    "reward": 3.8
  },
  {
    "phase": "TASK",
    "condition": "Cond3",
    "trial_num": 23,
    "trial_length": 10,
    "click_num": 1,
    "RT": 1455,
    "action": 1,
    "reward": 3.1
  },
  {
    "phase": "TASK",
    "condition": "Cond3",
    "trial_num": 23,
    "trial_length": 10,
    "click_num": 2,
    "RT": 1378,
    "action": 1,
    "reward": 2.7
  },
  {
    "phase": "TASK",
    "condition": "Cond3",
    "trial_num": 23,
    "trial_length": 10,
    "click_num": 3,
    "RT": 998,
    "action": 1,
    "reward": 4.1
  },
  {
    "phase": "TASK",
    "condition": "Cond3",
    "trial_num": 23,
    "trial_length": 10,
    "click_num": 4,
    "RT": 1507,
    "action": 0,
    "reward": 4.1
  },
  {
    "phase": "TASK",
    "condition": "Cond3",
    "trial_num": 23,
    "trial_length": 10,
    "click_num": 5,
    "RT": 772,
    "action": 0,
    "reward": 4.1
  },
  {
    "phase": "TASK",
    "condition": "Cond3",
    "trial_num": 23,
    "trial_length": 10,
    "click_num": 6,
    "RT": 1017,
    "action": 0,
    "reward": 4.1
  },
  {
    "phase": "TASK",
    "condition": "Cond3",
    "trial_num": 23,
    "trial_length": 10,
    "click_num": 7,
    "RT": 802,
    "action": 0,
    "reward": 4.1
  },
  {
    "phase": "TASK",
    "condition": "Cond3",
    "trial_num": 23,
    "trial_length": 10,
    "click_num": 8,
    "RT": 1006,
    "action": 0,
    "reward": 4.1
  },
  {
    "phase": "TASK",
    "condition": "Cond3",
    "trial_num": 23,
    "trial_length": 10,
    "click_num": 9,
    "RT": 762,
    "action": 0,
    "reward": 4.1
  },
  {
    "phase": "TASK",
    "condition": "Cond3",
    "trial_num": 23,
    "trial_length": 10,
    "click_num": 10,
    "RT": 1045,
    "action": 0,
    "reward": 4.1
  },
  {
    "phase": "TASK",
    "condition": "Cond3",
    "trial_num": 24,
    "trial_length": 9,
    "click_num": 1,
    "RT": 1144,
    "action": 1,
    "reward": 2.1
  },
  {
    "phase": "TASK",
    "condition": "Cond3",
    "trial_num": 24,
    "trial_length": 9,
    "click_num": 2,
    "RT": 2317,
    "action": 1,
    "reward": 1.6
  },
  {
    "phase": "TASK",
    "condition": "Cond3",
    "trial_num": 24,
    "trial_length": 9,
    "click_num": 3,
    "RT": 2225,
    "action": 1,
    "reward": 2.6
  },
  {
    "phase": "TASK",
    "condition": "Cond3",
    "trial_num": 24,
    "trial_length": 9,
    "click_num": 4,
    "RT": 1023,
    "action": 1,
    "reward": 3
  },
  {
    "phase": "TASK",
    "condition": "Cond3",
    "trial_num": 24,
    "trial_length": 9,
    "click_num": 5,
    "RT": 1304,
    "action": 1,
    "reward": 2.5
  },
  {
    "phase": "TASK",
    "condition": "Cond3",
    "trial_num": 24,
    "trial_length": 9,
    "click_num": 6,
    "RT": 1081,
    "action": 1,
    "reward": 2.9
  },
  {
    "phase": "TASK",
    "condition": "Cond3",
    "trial_num": 24,
    "trial_length": 9,
    "click_num": 7,
    "RT": 1217,
    "action": 1,
    "reward": 2.6
  },
  {
    "phase": "TASK",
    "condition": "Cond3",
    "trial_num": 24,
    "trial_length": 9,
    "click_num": 8,
    "RT": 1095,
    "action": 1,
    "reward": 2.6
  },
  {
    "phase": "TASK",
    "condition": "Cond3",
    "trial_num": 24,
    "trial_length": 9,
    "click_num": 9,
    "RT": 1271,
    "action": 0,
    "reward": 3
  },
  {
    "phase": "TASK",
    "condition": "Cond3",
    "trial_num": 25,
    "trial_length": 10,
    "click_num": 1,
    "RT": 1688,
    "action": 1,
    "reward": 2.8
  },
  {
    "phase": "TASK",
    "condition": "Cond3",
    "trial_num": 25,
    "trial_length": 10,
    "click_num": 2,
    "RT": 1198,
    "action": 1,
    "reward": 3.3
  },
  {
    "phase": "TASK",
    "condition": "Cond3",
    "trial_num": 25,
    "trial_length": 10,
    "click_num": 3,
    "RT": 1474,
    "action": 1,
    "reward": 3.2
  },
  {
    "phase": "TASK",
    "condition": "Cond3",
    "trial_num": 25,
    "trial_length": 10,
    "click_num": 4,
    "RT": 1598,
    "action": 0,
    "reward": 3.3
  },
  {
    "phase": "TASK",
    "condition": "Cond3",
    "trial_num": 25,
    "trial_length": 10,
    "click_num": 5,
    "RT": 769,
    "action": 1,
    "reward": 2.8
  },
  {
    "phase": "TASK",
    "condition": "Cond3",
    "trial_num": 25,
    "trial_length": 10,
    "click_num": 6,
    "RT": 1462,
    "action": 1,
    "reward": 2.3
  },
  {
    "phase": "TASK",
    "condition": "Cond3",
    "trial_num": 25,
    "trial_length": 10,
    "click_num": 7,
    "RT": 1811,
    "action": 1,
    "reward": 2.9
  },
  {
    "phase": "TASK",
    "condition": "Cond3",
    "trial_num": 25,
    "trial_length": 10,
    "click_num": 8,
    "RT": 1712,
    "action": 1,
    "reward": 2.8
  },
  {
    "phase": "TASK",
    "condition": "Cond3",
    "trial_num": 25,
    "trial_length": 10,
    "click_num": 9,
    "RT": 1062,
    "action": 0,
    "reward": 3.3
  },
  {
    "phase": "TASK",
    "condition": "Cond3",
    "trial_num": 25,
    "trial_length": 10,
    "click_num": 10,
    "RT": 1239,
    "action": 1,
    "reward": 2.5
  },
  {
    "phase": "TASK",
    "condition": "Cond3",
    "trial_num": 26,
    "trial_length": 6,
    "click_num": 1,
    "RT": 1165,
    "action": 1,
    "reward": 3.1
  },
  {
    "phase": "TASK",
    "condition": "Cond3",
    "trial_num": 26,
    "trial_length": 6,
    "click_num": 2,
    "RT": 1617,
    "action": 1,
    "reward": 2.9
  },
  {
    "phase": "TASK",
    "condition": "Cond3",
    "trial_num": 26,
    "trial_length": 6,
    "click_num": 3,
    "RT": 1746,
    "action": 1,
    "reward": 3.8
  },
  {
    "phase": "TASK",
    "condition": "Cond3",
    "trial_num": 26,
    "trial_length": 6,
    "click_num": 4,
    "RT": 949,
    "action": 0,
    "reward": 3.8
  },
  {
    "phase": "TASK",
    "condition": "Cond3",
    "trial_num": 26,
    "trial_length": 6,
    "click_num": 5,
    "RT": 746,
    "action": 0,
    "reward": 3.8
  },
  {
    "phase": "TASK",
    "condition": "Cond3",
    "trial_num": 26,
    "trial_length": 6,
    "click_num": 6,
    "RT": 832,
    "action": 0,
    "reward": 3.8
  },
  {
    "phase": "TASK",
    "condition": "Cond3",
    "trial_num": 27,
    "trial_length": 8,
    "click_num": 1,
    "RT": 2152,
    "action": 1,
    "reward": 3.2
  },
  {
    "phase": "TASK",
    "condition": "Cond3",
    "trial_num": 27,
    "trial_length": 8,
    "click_num": 2,
    "RT": 1622,
    "action": 1,
    "reward": 3.8
  },
  {
    "phase": "TASK",
    "condition": "Cond3",
    "trial_num": 27,
    "trial_length": 8,
    "click_num": 3,
    "RT": 1008,
    "action": 1,
    "reward": 3.9
  },
  {
    "phase": "TASK",
    "condition": "Cond3",
    "trial_num": 27,
    "trial_length": 8,
    "click_num": 4,
    "RT": 2224,
    "action": 1,
    "reward": 1.8
  },
  {
    "phase": "TASK",
    "condition": "Cond3",
    "trial_num": 27,
    "trial_length": 8,
    "click_num": 5,
    "RT": 1311,
    "action": 0,
    "reward": 3.9
  },
  {
    "phase": "TASK",
    "condition": "Cond3",
    "trial_num": 27,
    "trial_length": 8,
    "click_num": 6,
    "RT": 832,
    "action": 0,
    "reward": 3.9
  },
  {
    "phase": "TASK",
    "condition": "Cond3",
    "trial_num": 27,
    "trial_length": 8,
    "click_num": 7,
    "RT": 1033,
    "action": 0,
    "reward": 3.9
  },
  {
    "phase": "TASK",
    "condition": "Cond3",
    "trial_num": 27,
    "trial_length": 8,
    "click_num": 8,
    "RT": 848,
    "action": 0,
    "reward": 3.9
  },
  {
    "phase": "TASK",
    "condition": "Cond3",
    "trial_num": 28,
    "trial_length": 7,
    "click_num": 1,
    "RT": 1218,
    "action": 1,
    "reward": 2.4
  },
  {
    "phase": "TASK",
    "condition": "Cond3",
    "trial_num": 28,
    "trial_length": 7,
    "click_num": 2,
    "RT": 1699,
    "action": 1,
    "reward": 2.7
  },
  {
    "phase": "TASK",
    "condition": "Cond3",
    "trial_num": 28,
    "trial_length": 7,
    "click_num": 3,
    "RT": 990,
    "action": 1,
    "reward": 2.7
  },
  {
    "phase": "TASK",
    "condition": "Cond3",
    "trial_num": 28,
    "trial_length": 7,
    "click_num": 4,
    "RT": 1219,
    "action": 1,
    "reward": 3.3
  },
  {
    "phase": "TASK",
    "condition": "Cond3",
    "trial_num": 28,
    "trial_length": 7,
    "click_num": 5,
    "RT": 1660,
    "action": 0,
    "reward": 3.3
  },
  {
    "phase": "TASK",
    "condition": "Cond3",
    "trial_num": 28,
    "trial_length": 7,
    "click_num": 6,
    "RT": 739,
    "action": 0,
    "reward": 3.3
  },
  {
    "phase": "TASK",
    "condition": "Cond3",
    "trial_num": 28,
    "trial_length": 7,
    "click_num": 7,
    "RT": 758,
    "action": 0,
    "reward": 3.3
  },
  {
    "phase": "TASK",
    "condition": "Cond3",
    "trial_num": 29,
    "trial_length": 6,
    "click_num": 1,
    "RT": 1288,
    "action": 1,
    "reward": 3.4
  },
  {
    "phase": "TASK",
    "condition": "Cond3",
    "trial_num": 29,
    "trial_length": 6,
    "click_num": 2,
    "RT": 1237,
    "action": 1,
    "reward": 3.3
  },
  {
    "phase": "TASK",
    "condition": "Cond3",
    "trial_num": 29,
    "trial_length": 6,
    "click_num": 3,
    "RT": 1713,
    "action": 1,
    "reward": 3.1
  },
  {
    "phase": "TASK",
    "condition": "Cond3",
    "trial_num": 29,
    "trial_length": 6,
    "click_num": 4,
    "RT": 1104,
    "action": 0,
    "reward": 3.4
  },
  {
    "phase": "TASK",
    "condition": "Cond3",
    "trial_num": 29,
    "trial_length": 6,
    "click_num": 5,
    "RT": 1066,
    "action": 0,
    "reward": 3.4
  },
  {
    "phase": "TASK",
    "condition": "Cond3",
    "trial_num": 29,
    "trial_length": 6,
    "click_num": 6,
    "RT": 1141,
    "action": 1,
    "reward": 3.1
  },
  {
    "phase": "TASK",
    "condition": "Cond3",
    "trial_num": 30,
    "trial_length": 8,
    "click_num": 1,
    "RT": 1255,
    "action": 1,
    "reward": 4.7
  },
  {
    "phase": "TASK",
    "condition": "Cond3",
    "trial_num": 30,
    "trial_length": 8,
    "click_num": 2,
    "RT": 1803,
    "action": 0,
    "reward": 4.7
  },
  {
    "phase": "TASK",
    "condition": "Cond3",
    "trial_num": 30,
    "trial_length": 8,
    "click_num": 3,
    "RT": 723,
    "action": 0,
    "reward": 4.7
  },
  {
    "phase": "TASK",
    "condition": "Cond3",
    "trial_num": 30,
    "trial_length": 8,
    "click_num": 4,
    "RT": 698,
    "action": 0,
    "reward": 4.7
  },
  {
    "phase": "TASK",
    "condition": "Cond3",
    "trial_num": 30,
    "trial_length": 8,
    "click_num": 5,
    "RT": 739,
    "action": 0,
    "reward": 4.7
  },
  {
    "phase": "TASK",
    "condition": "Cond3",
    "trial_num": 30,
    "trial_length": 8,
    "click_num": 6,
    "RT": 725,
    "action": 0,
    "reward": 4.7
  },
  {
    "phase": "TASK",
    "condition": "Cond3",
    "trial_num": 30,
    "trial_length": 8,
    "click_num": 7,
    "RT": 744,
    "action": 0,
    "reward": 4.7
  },
  {
    "phase": "TASK",
    "condition": "Cond3",
    "trial_num": 30,
    "trial_length": 8,
    "click_num": 8,
    "RT": 777,
    "action": 0,
    "reward": 4.7
  },
  {
    "phase": "TASK",
    "condition": "Cond3",
    "trial_num": 31,
    "trial_length": 6,
    "click_num": 1,
    "RT": 1263,
    "action": 1,
    "reward": 3.8
  },
  {
    "phase": "TASK",
    "condition": "Cond3",
    "trial_num": 31,
    "trial_length": 6,
    "click_num": 2,
    "RT": 3578,
    "action": 0,
    "reward": 3.8
  },
  {
    "phase": "TASK",
    "condition": "Cond3",
    "trial_num": 31,
    "trial_length": 6,
    "click_num": 3,
    "RT": 862,
    "action": 1,
    "reward": 3.2
  },
  {
    "phase": "TASK",
    "condition": "Cond3",
    "trial_num": 31,
    "trial_length": 6,
    "click_num": 4,
    "RT": 1043,
    "action": 0,
    "reward": 3.8
  },
  {
    "phase": "TASK",
    "condition": "Cond3",
    "trial_num": 31,
    "trial_length": 6,
    "click_num": 5,
    "RT": 829,
    "action": 0,
    "reward": 3.8
  },
  {
    "phase": "TASK",
    "condition": "Cond3",
    "trial_num": 31,
    "trial_length": 6,
    "click_num": 6,
    "RT": 688,
    "action": 0,
    "reward": 3.8
  },
  {
    "phase": "TASK",
    "condition": "Cond3",
    "trial_num": 32,
    "trial_length": 9,
    "click_num": 1,
    "RT": 1175,
    "action": 1,
    "reward": 2.4
  },
  {
    "phase": "TASK",
    "condition": "Cond3",
    "trial_num": 32,
    "trial_length": 9,
    "click_num": 2,
    "RT": 1610,
    "action": 1,
    "reward": 2
  },
  {
    "phase": "TASK",
    "condition": "Cond3",
    "trial_num": 32,
    "trial_length": 9,
    "click_num": 3,
    "RT": 845,
    "action": 1,
    "reward": 3.9
  },
  {
    "phase": "TASK",
    "condition": "Cond3",
    "trial_num": 32,
    "trial_length": 9,
    "click_num": 4,
    "RT": 1144,
    "action": 0,
    "reward": 3.9
  },
  {
    "phase": "TASK",
    "condition": "Cond3",
    "trial_num": 32,
    "trial_length": 9,
    "click_num": 5,
    "RT": 794,
    "action": 0,
    "reward": 3.9
  },
  {
    "phase": "TASK",
    "condition": "Cond3",
    "trial_num": 32,
    "trial_length": 9,
    "click_num": 6,
    "RT": 1153,
    "action": 0,
    "reward": 3.9
  },
  {
    "phase": "TASK",
    "condition": "Cond3",
    "trial_num": 32,
    "trial_length": 9,
    "click_num": 7,
    "RT": 709,
    "action": 0,
    "reward": 3.9
  },
  {
    "phase": "TASK",
    "condition": "Cond3",
    "trial_num": 32,
    "trial_length": 9,
    "click_num": 8,
    "RT": 815,
    "action": 0,
    "reward": 3.9
  },
  {
    "phase": "TASK",
    "condition": "Cond3",
    "trial_num": 32,
    "trial_length": 9,
    "click_num": 9,
    "RT": 745,
    "action": 0,
    "reward": 3.9
  },
  {
    "phase": "TASK",
    "condition": "Cond3",
    "trial_num": 33,
    "trial_length": 10,
    "click_num": 1,
    "RT": 2461,
    "action": 1,
    "reward": 3
  },
  {
    "phase": "TASK",
    "condition": "Cond3",
    "trial_num": 33,
    "trial_length": 10,
    "click_num": 2,
    "RT": 1359,
    "action": 1,
    "reward": 3.5
  },
  {
    "phase": "TASK",
    "condition": "Cond3",
    "trial_num": 33,
    "trial_length": 10,
    "click_num": 3,
    "RT": 1298,
    "action": 1,
    "reward": 2.6
  },
  {
    "phase": "TASK",
    "condition": "Cond3",
    "trial_num": 33,
    "trial_length": 10,
    "click_num": 4,
    "RT": 1470,
    "action": 1,
    "reward": 2.7
  },
  {
    "phase": "TASK",
    "condition": "Cond3",
    "trial_num": 33,
    "trial_length": 10,
    "click_num": 5,
    "RT": 1312,
    "action": 0,
    "reward": 3.5
  },
  {
    "phase": "TASK",
    "condition": "Cond3",
    "trial_num": 33,
    "trial_length": 10,
    "click_num": 6,
    "RT": 1266,
    "action": 1,
    "reward": 2.3
  },
  {
    "phase": "TASK",
    "condition": "Cond3",
    "trial_num": 33,
    "trial_length": 10,
    "click_num": 7,
    "RT": 1133,
    "action": 0,
    "reward": 3.5
  },
  {
    "phase": "TASK",
    "condition": "Cond3",
    "trial_num": 33,
    "trial_length": 10,
    "click_num": 8,
    "RT": 665,
    "action": 0,
    "reward": 3.5
  },
  {
    "phase": "TASK",
    "condition": "Cond3",
    "trial_num": 33,
    "trial_length": 10,
    "click_num": 9,
    "RT": 808,
    "action": 0,
    "reward": 3.5
  },
  {
    "phase": "TASK",
    "condition": "Cond3",
    "trial_num": 33,
    "trial_length": 10,
    "click_num": 10,
    "RT": 712,
    "action": 0,
    "reward": 3.5
  },
  {
    "phase": "TASK",
    "condition": "Cond3",
    "trial_num": 34,
    "trial_length": 8,
    "click_num": 1,
    "RT": 1229,
    "action": 1,
    "reward": 3.3
  },
  {
    "phase": "TASK",
    "condition": "Cond3",
    "trial_num": 34,
    "trial_length": 8,
    "click_num": 2,
    "RT": 2226,
    "action": 1,
    "reward": 3.4
  },
  {
    "phase": "TASK",
    "condition": "Cond3",
    "trial_num": 34,
    "trial_length": 8,
    "click_num": 3,
    "RT": 1279,
    "action": 1,
    "reward": 2.6
  },
  {
    "phase": "TASK",
    "condition": "Cond3",
    "trial_num": 34,
    "trial_length": 8,
    "click_num": 4,
    "RT": 1911,
    "action": 1,
    "reward": 3.3
  },
  {
    "phase": "TASK",
    "condition": "Cond3",
    "trial_num": 34,
    "trial_length": 8,
    "click_num": 5,
    "RT": 1696,
    "action": 0,
    "reward": 3.4
  },
  {
    "phase": "TASK",
    "condition": "Cond3",
    "trial_num": 34,
    "trial_length": 8,
    "click_num": 6,
    "RT": 1048,
    "action": 0,
    "reward": 3.4
  },
  {
    "phase": "TASK",
    "condition": "Cond3",
    "trial_num": 34,
    "trial_length": 8,
    "click_num": 7,
    "RT": 1001,
    "action": 0,
    "reward": 3.4
  },
  {
    "phase": "TASK",
    "condition": "Cond3",
    "trial_num": 34,
    "trial_length": 8,
    "click_num": 8,
    "RT": 831,
    "action": 1,
    "reward": 3.4
  },
  {
    "phase": "TASK",
    "condition": "Cond3",
    "trial_num": 35,
    "trial_length": 6,
    "click_num": 1,
    "RT": 1126,
    "action": 1,
    "reward": 3
  },
  {
    "phase": "TASK",
    "condition": "Cond3",
    "trial_num": 35,
    "trial_length": 6,
    "click_num": 2,
    "RT": 1513,
    "action": 1,
    "reward": 2.1
  },
  {
    "phase": "TASK",
    "condition": "Cond3",
    "trial_num": 35,
    "trial_length": 6,
    "click_num": 3,
    "RT": 784,
    "action": 1,
    "reward": 3.1
  },
  {
    "phase": "TASK",
    "condition": "Cond3",
    "trial_num": 35,
    "trial_length": 6,
    "click_num": 4,
    "RT": 1552,
    "action": 0,
    "reward": 3.1
  },
  {
    "phase": "TASK",
    "condition": "Cond3",
    "trial_num": 35,
    "trial_length": 6,
    "click_num": 5,
    "RT": 872,
    "action": 0,
    "reward": 3.1
  },
  {
    "phase": "TASK",
    "condition": "Cond3",
    "trial_num": 35,
    "trial_length": 6,
    "click_num": 6,
    "RT": 843,
    "action": 1,
    "reward": 2.3
  },
  {
    "phase": "TASK",
    "condition": "Cond3",
    "trial_num": 36,
    "trial_length": 8,
    "click_num": 1,
    "RT": 1151,
    "action": 1,
    "reward": 3.4
  },
  {
    "phase": "TASK",
    "condition": "Cond3",
    "trial_num": 36,
    "trial_length": 8,
    "click_num": 2,
    "RT": 1454,
    "action": 1,
    "reward": 2.4
  },
  {
    "phase": "TASK",
    "condition": "Cond3",
    "trial_num": 36,
    "trial_length": 8,
    "click_num": 3,
    "RT": 1211,
    "action": 0,
    "reward": 3.4
  },
  {
    "phase": "TASK",
    "condition": "Cond3",
    "trial_num": 36,
    "trial_length": 8,
    "click_num": 4,
    "RT": 1142,
    "action": 1,
    "reward": 3.5
  },
  {
    "phase": "TASK",
    "condition": "Cond3",
    "trial_num": 36,
    "trial_length": 8,
    "click_num": 5,
    "RT": 1071,
    "action": 0,
    "reward": 3.5
  },
  {
    "phase": "TASK",
    "condition": "Cond3",
    "trial_num": 36,
    "trial_length": 8,
    "click_num": 6,
    "RT": 664,
    "action": 0,
    "reward": 3.5
  },
  {
    "phase": "TASK",
    "condition": "Cond3",
    "trial_num": 36,
    "trial_length": 8,
    "click_num": 7,
    "RT": 624,
    "action": 0,
    "reward": 3.5
  },
  {
    "phase": "TASK",
    "condition": "Cond3",
    "trial_num": 36,
    "trial_length": 8,
    "click_num": 8,
    "RT": 633,
    "action": 0,
    "reward": 3.5
  },
  {
    "phase": "TASK",
    "condition": "Cond3",
    "trial_num": 37,
    "trial_length": 8,
    "click_num": 1,
    "RT": 1040,
    "action": 1,
    "reward": 3.5
  },
  {
    "phase": "TASK",
    "condition": "Cond3",
    "trial_num": 37,
    "trial_length": 8,
    "click_num": 2,
    "RT": 2003,
    "action": 1,
    "reward": 3.5
  },
  {
    "phase": "TASK",
    "condition": "Cond3",
    "trial_num": 37,
    "trial_length": 8,
    "click_num": 3,
    "RT": 1583,
    "action": 1,
    "reward": 2.5
  },
  {
    "phase": "TASK",
    "condition": "Cond3",
    "trial_num": 37,
    "trial_length": 8,
    "click_num": 4,
    "RT": 1255,
    "action": 0,
    "reward": 3.5
  },
  {
    "phase": "TASK",
    "condition": "Cond3",
    "trial_num": 37,
    "trial_length": 8,
    "click_num": 5,
    "RT": 658,
    "action": 0,
    "reward": 3.5
  },
  {
    "phase": "TASK",
    "condition": "Cond3",
    "trial_num": 37,
    "trial_length": 8,
    "click_num": 6,
    "RT": 821,
    "action": 0,
    "reward": 3.5
  },
  {
    "phase": "TASK",
    "condition": "Cond3",
    "trial_num": 37,
    "trial_length": 8,
    "click_num": 7,
    "RT": 736,
    "action": 0,
    "reward": 3.5
  },
  {
    "phase": "TASK",
    "condition": "Cond3",
    "trial_num": 37,
    "trial_length": 8,
    "click_num": 8,
    "RT": 735,
    "action": 0,
    "reward": 3.5
  },
  {
    "phase": "TASK",
    "condition": "Cond3",
    "trial_num": 38,
    "trial_length": 10,
    "click_num": 1,
    "RT": 1626,
    "action": 1,
    "reward": 2.9
  },
  {
    "phase": "TASK",
    "condition": "Cond3",
    "trial_num": 38,
    "trial_length": 10,
    "click_num": 2,
    "RT": 3120,
    "action": 1,
    "reward": 2.5
  },
  {
    "phase": "TASK",
    "condition": "Cond3",
    "trial_num": 38,
    "trial_length": 10,
    "click_num": 3,
    "RT": 1150,
    "action": 1,
    "reward": 3.1
  },
  {
    "phase": "TASK",
    "condition": "Cond3",
    "trial_num": 38,
    "trial_length": 10,
    "click_num": 4,
    "RT": 1462,
    "action": 1,
    "reward": 3.5
  },
  {
    "phase": "TASK",
    "condition": "Cond3",
    "trial_num": 38,
    "trial_length": 10,
    "click_num": 5,
    "RT": 5402,
    "action": 0,
    "reward": 3.5
  },
  {
    "phase": "TASK",
    "condition": "Cond3",
    "trial_num": 38,
    "trial_length": 10,
    "click_num": 6,
    "RT": 1171,
    "action": 0,
    "reward": 3.5
  },
  {
    "phase": "TASK",
    "condition": "Cond3",
    "trial_num": 38,
    "trial_length": 10,
    "click_num": 7,
    "RT": 732,
    "action": 0,
    "reward": 3.5
  },
  {
    "phase": "TASK",
    "condition": "Cond3",
    "trial_num": 38,
    "trial_length": 10,
    "click_num": 8,
    "RT": 1024,
    "action": 0,
    "reward": 3.5
  },
  {
    "phase": "TASK",
    "condition": "Cond3",
    "trial_num": 38,
    "trial_length": 10,
    "click_num": 9,
    "RT": 792,
    "action": 0,
    "reward": 3.5
  },
  {
    "phase": "TASK",
    "condition": "Cond3",
    "trial_num": 38,
    "trial_length": 10,
    "click_num": 10,
    "RT": 792,
    "action": 0,
    "reward": 3.5
  },
  {
    "phase": "TASK",
    "condition": "Cond3",
    "trial_num": 39,
    "trial_length": 6,
    "click_num": 1,
    "RT": 2526,
    "action": 1,
    "reward": 2.9
  },
  {
    "phase": "TASK",
    "condition": "Cond3",
    "trial_num": 39,
    "trial_length": 6,
    "click_num": 2,
    "RT": 1311,
    "action": 1,
    "reward": 2.7
  },
  {
    "phase": "TASK",
    "condition": "Cond3",
    "trial_num": 39,
    "trial_length": 6,
    "click_num": 3,
    "RT": 1632,
    "action": 1,
    "reward": 3.3
  },
  {
    "phase": "TASK",
    "condition": "Cond3",
    "trial_num": 39,
    "trial_length": 6,
    "click_num": 4,
    "RT": 1011,
    "action": 1,
    "reward": 2.7
  },
  {
    "phase": "TASK",
    "condition": "Cond3",
    "trial_num": 39,
    "trial_length": 6,
    "click_num": 5,
    "RT": 1229,
    "action": 0,
    "reward": 3.3
  },
  {
    "phase": "TASK",
    "condition": "Cond3",
    "trial_num": 39,
    "trial_length": 6,
    "click_num": 6,
    "RT": 1153,
    "action": 0,
    "reward": 3.3
  },
  {
    "phase": "TASK",
    "condition": "Cond3",
    "trial_num": 40,
    "trial_length": 6,
    "click_num": 1,
    "RT": 1071,
    "action": 1,
    "reward": 3
  },
  {
    "phase": "TASK",
    "condition": "Cond3",
    "trial_num": 40,
    "trial_length": 6,
    "click_num": 2,
    "RT": 1136,
    "action": 1,
    "reward": 3.3
  },
  {
    "phase": "TASK",
    "condition": "Cond3",
    "trial_num": 40,
    "trial_length": 6,
    "click_num": 3,
    "RT": 1208,
    "action": 0,
    "reward": 3.3
  },
  {
    "phase": "TASK",
    "condition": "Cond3",
    "trial_num": 40,
    "trial_length": 6,
    "click_num": 4,
    "RT": 776,
    "action": 0,
    "reward": 3.3
  },
  {
    "phase": "TASK",
    "condition": "Cond3",
    "trial_num": 40,
    "trial_length": 6,
    "click_num": 5,
    "RT": 528,
    "action": 0,
    "reward": 3.3
  },
  {
    "phase": "TASK",
    "condition": "Cond3",
    "trial_num": 40,
    "trial_length": 6,
    "click_num": 6,
    "RT": 1016,
    "action": 0,
    "reward": 3.3
  },
  {
    "phase": "TASK",
    "condition": "Cond3",
    "trial_num": 41,
    "trial_length": 5,
    "click_num": 1,
    "RT": 1053,
    "action": 1,
    "reward": 2.4
  },
  {
    "phase": "TASK",
    "condition": "Cond3",
    "trial_num": 41,
    "trial_length": 5,
    "click_num": 2,
    "RT": 1455,
    "action": 1,
    "reward": 3.3
  },
  {
    "phase": "TASK",
    "condition": "Cond3",
    "trial_num": 41,
    "trial_length": 5,
    "click_num": 3,
    "RT": 1046,
    "action": 1,
    "reward": 2.3
  },
  {
    "phase": "TASK",
    "condition": "Cond3",
    "trial_num": 41,
    "trial_length": 5,
    "click_num": 4,
    "RT": 935,
    "action": 0,
    "reward": 3.3
  },
  {
    "phase": "TASK",
    "condition": "Cond3",
    "trial_num": 41,
    "trial_length": 5,
    "click_num": 5,
    "RT": 616,
    "action": 0,
    "reward": 3.3
  },
  {
    "phase": "TASK",
    "condition": "Cond3",
    "trial_num": 42,
    "trial_length": 7,
    "click_num": 1,
    "RT": 1034,
    "action": 1,
    "reward": 2.1
  },
  {
    "phase": "TASK",
    "condition": "Cond3",
    "trial_num": 42,
    "trial_length": 7,
    "click_num": 2,
    "RT": 1287,
    "action": 1,
    "reward": 2
  },
  {
    "phase": "TASK",
    "condition": "Cond3",
    "trial_num": 42,
    "trial_length": 7,
    "click_num": 3,
    "RT": 903,
    "action": 1,
    "reward": 3.6
  },
  {
    "phase": "TASK",
    "condition": "Cond3",
    "trial_num": 42,
    "trial_length": 7,
    "click_num": 4,
    "RT": 1144,
    "action": 0,
    "reward": 3.6
  },
  {
    "phase": "TASK",
    "condition": "Cond3",
    "trial_num": 42,
    "trial_length": 7,
    "click_num": 5,
    "RT": 601,
    "action": 0,
    "reward": 3.6
  },
  {
    "phase": "TASK",
    "condition": "Cond3",
    "trial_num": 42,
    "trial_length": 7,
    "click_num": 6,
    "RT": 704,
    "action": 0,
    "reward": 3.6
  },
  {
    "phase": "TASK",
    "condition": "Cond3",
    "trial_num": 42,
    "trial_length": 7,
    "click_num": 7,
    "RT": 631,
    "action": 0,
    "reward": 3.6
  },
  {
    "phase": "TASK",
    "condition": "Cond3",
    "trial_num": 43,
    "trial_length": 10,
    "click_num": 1,
    "RT": 1045,
    "action": 1,
    "reward": 2.7
  },
  {
    "phase": "TASK",
    "condition": "Cond3",
    "trial_num": 43,
    "trial_length": 10,
    "click_num": 2,
    "RT": 1403,
    "action": 1,
    "reward": 3.9
  },
  {
    "phase": "TASK",
    "condition": "Cond3",
    "trial_num": 43,
    "trial_length": 10,
    "click_num": 3,
    "RT": 1240,
    "action": 0,
    "reward": 3.9
  },
  {
    "phase": "TASK",
    "condition": "Cond3",
    "trial_num": 43,
    "trial_length": 10,
    "click_num": 4,
    "RT": 613,
    "action": 0,
    "reward": 3.9
  },
  {
    "phase": "TASK",
    "condition": "Cond3",
    "trial_num": 43,
    "trial_length": 10,
    "click_num": 5,
    "RT": 552,
    "action": 0,
    "reward": 3.9
  },
  {
    "phase": "TASK",
    "condition": "Cond3",
    "trial_num": 43,
    "trial_length": 10,
    "click_num": 6,
    "RT": 553,
    "action": 0,
    "reward": 3.9
  },
  {
    "phase": "TASK",
    "condition": "Cond3",
    "trial_num": 43,
    "trial_length": 10,
    "click_num": 7,
    "RT": 664,
    "action": 0,
    "reward": 3.9
  },
  {
    "phase": "TASK",
    "condition": "Cond3",
    "trial_num": 43,
    "trial_length": 10,
    "click_num": 8,
    "RT": 591,
    "action": 0,
    "reward": 3.9
  },
  {
    "phase": "TASK",
    "condition": "Cond3",
    "trial_num": 43,
    "trial_length": 10,
    "click_num": 9,
    "RT": 569,
    "action": 0,
    "reward": 3.9
  },
  {
    "phase": "TASK",
    "condition": "Cond3",
    "trial_num": 43,
    "trial_length": 10,
    "click_num": 10,
    "RT": 799,
    "action": 0,
    "reward": 3.9
  },
  {
    "phase": "TASK",
    "condition": "Cond3",
    "trial_num": 44,
    "trial_length": 10,
    "click_num": 1,
    "RT": 1029,
    "action": 1,
    "reward": 2.9
  },
  {
    "phase": "TASK",
    "condition": "Cond3",
    "trial_num": 44,
    "trial_length": 10,
    "click_num": 2,
    "RT": 1240,
    "action": 1,
    "reward": 2.4
  },
  {
    "phase": "TASK",
    "condition": "Cond3",
    "trial_num": 44,
    "trial_length": 10,
    "click_num": 3,
    "RT": 1088,
    "action": 1,
    "reward": 2.8
  },
  {
    "phase": "TASK",
    "condition": "Cond3",
    "trial_num": 44,
    "trial_length": 10,
    "click_num": 4,
    "RT": 768,
    "action": 1,
    "reward": 2.7
  },
  {
    "phase": "TASK",
    "condition": "Cond3",
    "trial_num": 44,
    "trial_length": 10,
    "click_num": 5,
    "RT": 824,
    "action": 1,
    "reward": 3.7
  },
  {
    "phase": "TASK",
    "condition": "Cond3",
    "trial_num": 44,
    "trial_length": 10,
    "click_num": 6,
    "RT": 1264,
    "action": 0,
    "reward": 3.7
  },
  {
    "phase": "TASK",
    "condition": "Cond3",
    "trial_num": 44,
    "trial_length": 10,
    "click_num": 7,
    "RT": 535,
    "action": 0,
    "reward": 3.7
  },
  {
    "phase": "TASK",
    "condition": "Cond3",
    "trial_num": 44,
    "trial_length": 10,
    "click_num": 8,
    "RT": 537,
    "action": 0,
    "reward": 3.7
  },
  {
    "phase": "TASK",
    "condition": "Cond3",
    "trial_num": 44,
    "trial_length": 10,
    "click_num": 9,
    "RT": 608,
    "action": 0,
    "reward": 3.7
  },
  {
    "phase": "TASK",
    "condition": "Cond3",
    "trial_num": 44,
    "trial_length": 10,
    "click_num": 10,
    "RT": 752,
    "action": 0,
    "reward": 3.7
  },
  {
    "phase": "TASK",
    "condition": "Cond3",
    "trial_num": 45,
    "trial_length": 6,
    "click_num": 1,
    "RT": 1182,
    "action": 1,
    "reward": 3
  },
  {
    "phase": "TASK",
    "condition": "Cond3",
    "trial_num": 45,
    "trial_length": 6,
    "click_num": 2,
    "RT": 1247,
    "action": 1,
    "reward": 2.8
  },
  {
    "phase": "TASK",
    "condition": "Cond3",
    "trial_num": 45,
    "trial_length": 6,
    "click_num": 3,
    "RT": 976,
    "action": 1,
    "reward": 2.1
  },
  {
    "phase": "TASK",
    "condition": "Cond3",
    "trial_num": 45,
    "trial_length": 6,
    "click_num": 4,
    "RT": 2786,
    "action": 1,
    "reward": 2.7
  },
  {
    "phase": "TASK",
    "condition": "Cond3",
    "trial_num": 45,
    "trial_length": 6,
    "click_num": 5,
    "RT": 1478,
    "action": 0,
    "reward": 3
  },
  {
    "phase": "TASK",
    "condition": "Cond3",
    "trial_num": 45,
    "trial_length": 6,
    "click_num": 6,
    "RT": 696,
    "action": 1,
    "reward": 3.3
  },
  {
    "phase": "TASK",
    "condition": "Cond3",
    "trial_num": 46,
    "trial_length": 5,
    "click_num": 1,
    "RT": 1049,
    "action": 1,
    "reward": 3.1
  },
  {
    "phase": "TASK",
    "condition": "Cond3",
    "trial_num": 46,
    "trial_length": 5,
    "click_num": 2,
    "RT": 1381,
    "action": 1,
    "reward": 3.3
  },
  {
    "phase": "TASK",
    "condition": "Cond3",
    "trial_num": 46,
    "trial_length": 5,
    "click_num": 3,
    "RT": 783,
    "action": 0,
    "reward": 3.3
  },
  {
    "phase": "TASK",
    "condition": "Cond3",
    "trial_num": 46,
    "trial_length": 5,
    "click_num": 4,
    "RT": 619,
    "action": 0,
    "reward": 3.3
  },
  {
    "phase": "TASK",
    "condition": "Cond3",
    "trial_num": 46,
    "trial_length": 5,
    "click_num": 5,
    "RT": 614,
    "action": 0,
    "reward": 3.3
  },
  {
    "phase": "TASK",
    "condition": "Cond3",
    "trial_num": 47,
    "trial_length": 9,
    "click_num": 1,
    "RT": 1074,
    "action": 1,
    "reward": 3.5
  },
  {
    "phase": "TASK",
    "condition": "Cond3",
    "trial_num": 47,
    "trial_length": 9,
    "click_num": 2,
    "RT": 1545,
    "action": 0,
    "reward": 3.5
  },
  {
    "phase": "TASK",
    "condition": "Cond3",
    "trial_num": 47,
    "trial_length": 9,
    "click_num": 3,
    "RT": 1199,
    "action": 0,
    "reward": 3.5
  },
  {
    "phase": "TASK",
    "condition": "Cond3",
    "trial_num": 47,
    "trial_length": 9,
    "click_num": 4,
    "RT": 768,
    "action": 0,
    "reward": 3.5
  },
  {
    "phase": "TASK",
    "condition": "Cond3",
    "trial_num": 47,
    "trial_length": 9,
    "click_num": 5,
    "RT": 536,
    "action": 0,
    "reward": 3.5
  },
  {
    "phase": "TASK",
    "condition": "Cond3",
    "trial_num": 47,
    "trial_length": 9,
    "click_num": 6,
    "RT": 1656,
    "action": 1,
    "reward": 2.6
  },
  {
    "phase": "TASK",
    "condition": "Cond3",
    "trial_num": 47,
    "trial_length": 9,
    "click_num": 7,
    "RT": 945,
    "action": 0,
    "reward": 3.5
  },
  {
    "phase": "TASK",
    "condition": "Cond3",
    "trial_num": 47,
    "trial_length": 9,
    "click_num": 8,
    "RT": 777,
    "action": 0,
    "reward": 3.5
  },
  {
    "phase": "TASK",
    "condition": "Cond3",
    "trial_num": 47,
    "trial_length": 9,
    "click_num": 9,
    "RT": 655,
    "action": 0,
    "reward": 3.5
  },
  {
    "phase": "TASK",
    "condition": "Cond3",
    "trial_num": 48,
    "trial_length": 9,
    "click_num": 1,
    "RT": 990,
    "action": 1,
    "reward": 3.5
  },
  {
    "phase": "TASK",
    "condition": "Cond3",
    "trial_num": 48,
    "trial_length": 9,
    "click_num": 2,
    "RT": 2337,
    "action": 1,
    "reward": 4.1
  },
  {
    "phase": "TASK",
    "condition": "Cond3",
    "trial_num": 48,
    "trial_length": 9,
    "click_num": 3,
    "RT": 1359,
    "action": 0,
    "reward": 4.1
  },
  {
    "phase": "TASK",
    "condition": "Cond3",
    "trial_num": 48,
    "trial_length": 9,
    "click_num": 4,
    "RT": 592,
    "action": 0,
    "reward": 4.1
  },
  {
    "phase": "TASK",
    "condition": "Cond3",
    "trial_num": 48,
    "trial_length": 9,
    "click_num": 5,
    "RT": 546,
    "action": 0,
    "reward": 4.1
  },
  {
    "phase": "TASK",
    "condition": "Cond3",
    "trial_num": 48,
    "trial_length": 9,
    "click_num": 6,
    "RT": 566,
    "action": 0,
    "reward": 4.1
  },
  {
    "phase": "TASK",
    "condition": "Cond3",
    "trial_num": 48,
    "trial_length": 9,
    "click_num": 7,
    "RT": 527,
    "action": 0,
    "reward": 4.1
  },
  {
    "phase": "TASK",
    "condition": "Cond3",
    "trial_num": 48,
    "trial_length": 9,
    "click_num": 8,
    "RT": 520,
    "action": 0,
    "reward": 4.1
  },
  {
    "phase": "TASK",
    "condition": "Cond3",
    "trial_num": 48,
    "trial_length": 9,
    "click_num": 9,
    "RT": 578,
    "action": 0,
    "reward": 4.1
  },
  {
    "phase": "TASK",
    "condition": "Cond3",
    "trial_num": 49,
    "trial_length": 10,
    "click_num": 1,
    "RT": 1139,
    "action": 1,
    "reward": 2.4
  },
  {
    "phase": "TASK",
    "condition": "Cond3",
    "trial_num": 49,
    "trial_length": 10,
    "click_num": 2,
    "RT": 1383,
    "action": 1,
    "reward": 2.6
  },
  {
    "phase": "TASK",
    "condition": "Cond3",
    "trial_num": 49,
    "trial_length": 10,
    "click_num": 3,
    "RT": 938,
    "action": 1,
    "reward": 4.2
  },
  {
    "phase": "TASK",
    "condition": "Cond3",
    "trial_num": 49,
    "trial_length": 10,
    "click_num": 4,
    "RT": 981,
    "action": 0,
    "reward": 4.2
  },
  {
    "phase": "TASK",
    "condition": "Cond3",
    "trial_num": 49,
    "trial_length": 10,
    "click_num": 5,
    "RT": 538,
    "action": 0,
    "reward": 4.2
  },
  {
    "phase": "TASK",
    "condition": "Cond3",
    "trial_num": 49,
    "trial_length": 10,
    "click_num": 6,
    "RT": 504,
    "action": 0,
    "reward": 4.2
  },
  {
    "phase": "TASK",
    "condition": "Cond3",
    "trial_num": 49,
    "trial_length": 10,
    "click_num": 7,
    "RT": 1150,
    "action": 0,
    "reward": 4.2
  },
  {
    "phase": "TASK",
    "condition": "Cond3",
    "trial_num": 49,
    "trial_length": 10,
    "click_num": 8,
    "RT": 1019,
    "action": 0,
    "reward": 4.2
  },
  {
    "phase": "TASK",
    "condition": "Cond3",
    "trial_num": 49,
    "trial_length": 10,
    "click_num": 9,
    "RT": 652,
    "action": 0,
    "reward": 4.2
  },
  {
    "phase": "TASK",
    "condition": "Cond3",
    "trial_num": 49,
    "trial_length": 10,
    "click_num": 10,
    "RT": 601,
    "action": 0,
    "reward": 4.2
  },
  {
    "phase": "TASK",
    "condition": "Cond3",
    "trial_num": 50,
    "trial_length": 9,
    "click_num": 1,
    "RT": 1111,
    "action": 1,
    "reward": 3.5
  },
  {
    "phase": "TASK",
    "condition": "Cond3",
    "trial_num": 50,
    "trial_length": 9,
    "click_num": 2,
    "RT": 1568,
    "action": 1,
    "reward": 3.3
  },
  {
    "phase": "TASK",
    "condition": "Cond3",
    "trial_num": 50,
    "trial_length": 9,
    "click_num": 3,
    "RT": 1500,
    "action": 1,
    "reward": 2.6
  },
  {
    "phase": "TASK",
    "condition": "Cond3",
    "trial_num": 50,
    "trial_length": 9,
    "click_num": 4,
    "RT": 638,
    "action": 0,
    "reward": 3.5
  },
  {
    "phase": "TASK",
    "condition": "Cond3",
    "trial_num": 50,
    "trial_length": 9,
    "click_num": 5,
    "RT": 550,
    "action": 0,
    "reward": 3.5
  },
  {
    "phase": "TASK",
    "condition": "Cond3",
    "trial_num": 50,
    "trial_length": 9,
    "click_num": 6,
    "RT": 1120,
    "action": 0,
    "reward": 3.5
  },
  {
    "phase": "TASK",
    "condition": "Cond3",
    "trial_num": 50,
    "trial_length": 9,
    "click_num": 7,
    "RT": 672,
    "action": 0,
    "reward": 3.5
  },
  {
    "phase": "TASK",
    "condition": "Cond3",
    "trial_num": 50,
    "trial_length": 9,
    "click_num": 8,
    "RT": 632,
    "action": 0,
    "reward": 3.5
  },
  {
    "phase": "TASK",
    "condition": "Cond3",
    "trial_num": 50,
    "trial_length": 9,
    "click_num": 9,
    "RT": 544,
    "action": 0,
    "reward": 3.5
  },
  {
    "phase": "TASK",
    "condition": "Cond3",
    "trial_num": 51,
    "trial_length": 6,
    "click_num": 1,
    "RT": 1489,
    "action": 1,
    "reward": 1.8
  },
  {
    "phase": "TASK",
    "condition": "Cond3",
    "trial_num": 51,
    "trial_length": 6,
    "click_num": 2,
    "RT": 1407,
    "action": 1,
    "reward": 2.5
  },
  {
    "phase": "TASK",
    "condition": "Cond3",
    "trial_num": 51,
    "trial_length": 6,
    "click_num": 3,
    "RT": 1058,
    "action": 1,
    "reward": 2.1
  },
  {
    "phase": "TASK",
    "condition": "Cond3",
    "trial_num": 51,
    "trial_length": 6,
    "click_num": 4,
    "RT": 1295,
    "action": 1,
    "reward": 3
  },
  {
    "phase": "TASK",
    "condition": "Cond3",
    "trial_num": 51,
    "trial_length": 6,
    "click_num": 5,
    "RT": 887,
    "action": 0,
    "reward": 3
  },
  {
    "phase": "TASK",
    "condition": "Cond3",
    "trial_num": 51,
    "trial_length": 6,
    "click_num": 6,
    "RT": 584,
    "action": 0,
    "reward": 3
  },
  {
    "phase": "TASK",
    "condition": "Cond3",
    "trial_num": 52,
    "trial_length": 7,
    "click_num": 1,
    "RT": 1353,
    "action": 1,
    "reward": 3.3
  },
  {
    "phase": "TASK",
    "condition": "Cond3",
    "trial_num": 52,
    "trial_length": 7,
    "click_num": 2,
    "RT": 1117,
    "action": 1,
    "reward": 4.1
  },
  {
    "phase": "TASK",
    "condition": "Cond3",
    "trial_num": 52,
    "trial_length": 7,
    "click_num": 3,
    "RT": 1337,
    "action": 0,
    "reward": 4.1
  },
  {
    "phase": "TASK",
    "condition": "Cond3",
    "trial_num": 52,
    "trial_length": 7,
    "click_num": 4,
    "RT": 589,
    "action": 0,
    "reward": 4.1
  },
  {
    "phase": "TASK",
    "condition": "Cond3",
    "trial_num": 52,
    "trial_length": 7,
    "click_num": 5,
    "RT": 1249,
    "action": 0,
    "reward": 4.1
  },
  {
    "phase": "TASK",
    "condition": "Cond3",
    "trial_num": 52,
    "trial_length": 7,
    "click_num": 6,
    "RT": 716,
    "action": 0,
    "reward": 4.1
  },
  {
    "phase": "TASK",
    "condition": "Cond3",
    "trial_num": 52,
    "trial_length": 7,
    "click_num": 7,
    "RT": 646,
    "action": 0,
    "reward": 4.1
  },
  {
    "phase": "TASK",
    "condition": "Cond3",
    "trial_num": 53,
    "trial_length": 5,
    "click_num": 1,
    "RT": 1823,
    "action": 1,
    "reward": 3.4
  },
  {
    "phase": "TASK",
    "condition": "Cond3",
    "trial_num": 53,
    "trial_length": 5,
    "click_num": 2,
    "RT": 3135,
    "action": 0,
    "reward": 3.4
  },
  {
    "phase": "TASK",
    "condition": "Cond3",
    "trial_num": 53,
    "trial_length": 5,
    "click_num": 3,
    "RT": 1113,
    "action": 0,
    "reward": 3.4
  },
  {
    "phase": "TASK",
    "condition": "Cond3",
    "trial_num": 53,
    "trial_length": 5,
    "click_num": 4,
    "RT": 621,
    "action": 0,
    "reward": 3.4
  },
  {
    "phase": "TASK",
    "condition": "Cond3",
    "trial_num": 53,
    "trial_length": 5,
    "click_num": 5,
    "RT": 632,
    "action": 0,
    "reward": 3.4
  },
  {
    "phase": "TASK",
    "condition": "Cond3",
    "trial_num": 54,
    "trial_length": 5,
    "click_num": 1,
    "RT": 1296,
    "action": 1,
    "reward": 2.8
  },
  {
    "phase": "TASK",
    "condition": "Cond3",
    "trial_num": 54,
    "trial_length": 5,
    "click_num": 2,
    "RT": 1207,
    "action": 1,
    "reward": 2.9
  },
  {
    "phase": "TASK",
    "condition": "Cond3",
    "trial_num": 54,
    "trial_length": 5,
    "click_num": 3,
    "RT": 760,
    "action": 1,
    "reward": 2.3
  },
  {
    "phase": "TASK",
    "condition": "Cond3",
    "trial_num": 54,
    "trial_length": 5,
    "click_num": 4,
    "RT": 736,
    "action": 1,
    "reward": 3.2
  },
  {
    "phase": "TASK",
    "condition": "Cond3",
    "trial_num": 54,
    "trial_length": 5,
    "click_num": 5,
    "RT": 1385,
    "action": 0,
    "reward": 3.2
  },
  {
    "phase": "TASK",
    "condition": "Cond3",
    "trial_num": 55,
    "trial_length": 7,
    "click_num": 1,
    "RT": 1015,
    "action": 1,
    "reward": 3.2
  },
  {
    "phase": "TASK",
    "condition": "Cond3",
    "trial_num": 55,
    "trial_length": 7,
    "click_num": 2,
    "RT": 1238,
    "action": 1,
    "reward": 3.2
  },
  {
    "phase": "TASK",
    "condition": "Cond3",
    "trial_num": 55,
    "trial_length": 7,
    "click_num": 3,
    "RT": 1027,
    "action": 1,
    "reward": 2.5
  },
  {
    "phase": "TASK",
    "condition": "Cond3",
    "trial_num": 55,
    "trial_length": 7,
    "click_num": 4,
    "RT": 1351,
    "action": 0,
    "reward": 3.2
  },
  {
    "phase": "TASK",
    "condition": "Cond3",
    "trial_num": 55,
    "trial_length": 7,
    "click_num": 5,
    "RT": 1071,
    "action": 0,
    "reward": 3.2
  },
  {
    "phase": "TASK",
    "condition": "Cond3",
    "trial_num": 55,
    "trial_length": 7,
    "click_num": 6,
    "RT": 535,
    "action": 0,
    "reward": 3.2
  },
  {
    "phase": "TASK",
    "condition": "Cond3",
    "trial_num": 55,
    "trial_length": 7,
    "click_num": 7,
    "RT": 888,
    "action": 0,
    "reward": 3.2
  },
  {
    "phase": "TASK",
    "condition": "Cond3",
    "trial_num": 56,
    "trial_length": 5,
    "click_num": 1,
    "RT": 2669,
    "action": 1,
    "reward": 3.4
  },
  {
    "phase": "TASK",
    "condition": "Cond3",
    "trial_num": 56,
    "trial_length": 5,
    "click_num": 2,
    "RT": 1803,
    "action": 1,
    "reward": 2
  },
  {
    "phase": "TASK",
    "condition": "Cond3",
    "trial_num": 56,
    "trial_length": 5,
    "click_num": 3,
    "RT": 751,
    "action": 0,
    "reward": 3.4
  },
  {
    "phase": "TASK",
    "condition": "Cond3",
    "trial_num": 56,
    "trial_length": 5,
    "click_num": 4,
    "RT": 590,
    "action": 0,
    "reward": 3.4
  },
  {
    "phase": "TASK",
    "condition": "Cond3",
    "trial_num": 56,
    "trial_length": 5,
    "click_num": 5,
    "RT": 705,
    "action": 0,
    "reward": 3.4
  },
  {
    "phase": "TASK",
    "condition": "Cond3",
    "trial_num": 57,
    "trial_length": 6,
    "click_num": 1,
    "RT": 1051,
    "action": 1,
    "reward": 3.2
  },
  {
    "phase": "TASK",
    "condition": "Cond3",
    "trial_num": 57,
    "trial_length": 6,
    "click_num": 2,
    "RT": 1024,
    "action": 1,
    "reward": 1.8
  },
  {
    "phase": "TASK",
    "condition": "Cond3",
    "trial_num": 57,
    "trial_length": 6,
    "click_num": 3,
    "RT": 714,
    "action": 0,
    "reward": 3.2
  },
  {
    "phase": "TASK",
    "condition": "Cond3",
    "trial_num": 57,
    "trial_length": 6,
    "click_num": 4,
    "RT": 799,
    "action": 0,
    "reward": 3.2
  },
  {
    "phase": "TASK",
    "condition": "Cond3",
    "trial_num": 57,
    "trial_length": 6,
    "click_num": 5,
    "RT": 751,
    "action": 0,
    "reward": 3.2
  },
  {
    "phase": "TASK",
    "condition": "Cond3",
    "trial_num": 57,
    "trial_length": 6,
    "click_num": 6,
    "RT": 1032,
    "action": 0,
    "reward": 3.2
  },
  {
    "phase": "TASK",
    "condition": "Cond3",
    "trial_num": 58,
    "trial_length": 10,
    "click_num": 1,
    "RT": 987,
    "action": 1,
    "reward": 2.1
  },
  {
    "phase": "TASK",
    "condition": "Cond3",
    "trial_num": 58,
    "trial_length": 10,
    "click_num": 2,
    "RT": 1994,
    "action": 1,
    "reward": 2.7
  },
  {
    "phase": "TASK",
    "condition": "Cond3",
    "trial_num": 58,
    "trial_length": 10,
    "click_num": 3,
    "RT": 887,
    "action": 1,
    "reward": 3.7
  },
  {
    "phase": "TASK",
    "condition": "Cond3",
    "trial_num": 58,
    "trial_length": 10,
    "click_num": 4,
    "RT": 1319,
    "action": 0,
    "reward": 3.7
  },
  {
    "phase": "TASK",
    "condition": "Cond3",
    "trial_num": 58,
    "trial_length": 10,
    "click_num": 5,
    "RT": 603,
    "action": 0,
    "reward": 3.7
  },
  {
    "phase": "TASK",
    "condition": "Cond3",
    "trial_num": 58,
    "trial_length": 10,
    "click_num": 6,
    "RT": 679,
    "action": 0,
    "reward": 3.7
  },
  {
    "phase": "TASK",
    "condition": "Cond3",
    "trial_num": 58,
    "trial_length": 10,
    "click_num": 7,
    "RT": 662,
    "action": 0,
    "reward": 3.7
  },
  {
    "phase": "TASK",
    "condition": "Cond3",
    "trial_num": 58,
    "trial_length": 10,
    "click_num": 8,
    "RT": 616,
    "action": 0,
    "reward": 3.7
  },
  {
    "phase": "TASK",
    "condition": "Cond3",
    "trial_num": 58,
    "trial_length": 10,
    "click_num": 9,
    "RT": 666,
    "action": 0,
    "reward": 3.7
  },
  {
    "phase": "TASK",
    "condition": "Cond3",
    "trial_num": 58,
    "trial_length": 10,
    "click_num": 10,
    "RT": 694,
    "action": 0,
    "reward": 3.7
  },
  {
    "phase": "TASK",
    "condition": "Cond3",
    "trial_num": 59,
    "trial_length": 8,
    "click_num": 1,
    "RT": 1118,
    "action": 1,
    "reward": 2.9
  },
  {
    "phase": "TASK",
    "condition": "Cond3",
    "trial_num": 59,
    "trial_length": 8,
    "click_num": 2,
    "RT": 2472,
    "action": 1,
    "reward": 3.8
  },
  {
    "phase": "TASK",
    "condition": "Cond3",
    "trial_num": 59,
    "trial_length": 8,
    "click_num": 3,
    "RT": 984,
    "action": 0,
    "reward": 3.8
  },
  {
    "phase": "TASK",
    "condition": "Cond3",
    "trial_num": 59,
    "trial_length": 8,
    "click_num": 4,
    "RT": 625,
    "action": 0,
    "reward": 3.8
  },
  {
    "phase": "TASK",
    "condition": "Cond3",
    "trial_num": 59,
    "trial_length": 8,
    "click_num": 5,
    "RT": 632,
    "action": 0,
    "reward": 3.8
  },
  {
    "phase": "TASK",
    "condition": "Cond3",
    "trial_num": 59,
    "trial_length": 8,
    "click_num": 6,
    "RT": 639,
    "action": 0,
    "reward": 3.8
  },
  {
    "phase": "TASK",
    "condition": "Cond3",
    "trial_num": 59,
    "trial_length": 8,
    "click_num": 7,
    "RT": 618,
    "action": 0,
    "reward": 3.8
  },
  {
    "phase": "TASK",
    "condition": "Cond3",
    "trial_num": 59,
    "trial_length": 8,
    "click_num": 8,
    "RT": 3552,
    "action": 0,
    "reward": 3.8
  },
  {
    "phase": "TASK",
    "condition": "Cond3",
    "trial_num": 60,
    "trial_length": 6,
    "click_num": 1,
    "RT": 2070,
    "action": 1,
    "reward": 3.7
  },
  {
    "phase": "TASK",
    "condition": "Cond3",
    "trial_num": 60,
    "trial_length": 6,
    "click_num": 2,
    "RT": 1467,
    "action": 0,
    "reward": 3.7
  },
  {
    "phase": "TASK",
    "condition": "Cond3",
    "trial_num": 60,
    "trial_length": 6,
    "click_num": 3,
    "RT": 588,
    "action": 0,
    "reward": 3.7
  },
  {
    "phase": "TASK",
    "condition": "Cond3",
    "trial_num": 60,
    "trial_length": 6,
    "click_num": 4,
    "RT": 609,
    "action": 0,
    "reward": 3.7
  },
  {
    "phase": "TASK",
    "condition": "Cond3",
    "trial_num": 60,
    "trial_length": 6,
    "click_num": 5,
    "RT": 624,
    "action": 0,
    "reward": 3.7
  },
  {
    "phase": "TASK",
    "condition": "Cond3",
    "trial_num": 60,
    "trial_length": 6,
    "click_num": 6,
    "RT": 585,
    "action": 0,
    "reward": 3.7
  },
  {
    "phase": "TASK",
    "condition": "Cond3",
    "trial_num": 61,
    "trial_length": 7,
    "click_num": 1,
    "RT": 1135,
    "action": 1,
    "reward": 3.2
  },
  {
    "phase": "TASK",
    "condition": "Cond3",
    "trial_num": 61,
    "trial_length": 7,
    "click_num": 2,
    "RT": 1239,
    "action": 1,
    "reward": 3.2
  },
  {
    "phase": "TASK",
    "condition": "Cond3",
    "trial_num": 61,
    "trial_length": 7,
    "click_num": 3,
    "RT": 1243,
    "action": 1,
    "reward": 2.8
  },
  {
    "phase": "TASK",
    "condition": "Cond3",
    "trial_num": 61,
    "trial_length": 7,
    "click_num": 4,
    "RT": 950,
    "action": 0,
    "reward": 3.2
  },
  {
    "phase": "TASK",
    "condition": "Cond3",
    "trial_num": 61,
    "trial_length": 7,
    "click_num": 5,
    "RT": 608,
    "action": 0,
    "reward": 3.2
  },
  {
    "phase": "TASK",
    "condition": "Cond3",
    "trial_num": 61,
    "trial_length": 7,
    "click_num": 6,
    "RT": 583,
    "action": 0,
    "reward": 3.2
  },
  {
    "phase": "TASK",
    "condition": "Cond3",
    "trial_num": 61,
    "trial_length": 7,
    "click_num": 7,
    "RT": 591,
    "action": 0,
    "reward": 3.2
  },
  {
    "phase": "TASK",
    "condition": "Cond3",
    "trial_num": 62,
    "trial_length": 9,
    "click_num": 1,
    "RT": 916,
    "action": 1,
    "reward": 2.7
  },
  {
    "phase": "TASK",
    "condition": "Cond3",
    "trial_num": 62,
    "trial_length": 9,
    "click_num": 2,
    "RT": 1472,
    "action": 1,
    "reward": 3.1
  },
  {
    "phase": "TASK",
    "condition": "Cond3",
    "trial_num": 62,
    "trial_length": 9,
    "click_num": 3,
    "RT": 2423,
    "action": 1,
    "reward": 2.4
  },
  {
    "phase": "TASK",
    "condition": "Cond3",
    "trial_num": 62,
    "trial_length": 9,
    "click_num": 4,
    "RT": 719,
    "action": 0,
    "reward": 3.1
  },
  {
    "phase": "TASK",
    "condition": "Cond3",
    "trial_num": 62,
    "trial_length": 9,
    "click_num": 5,
    "RT": 856,
    "action": 1,
    "reward": 3
  },
  {
    "phase": "TASK",
    "condition": "Cond3",
    "trial_num": 62,
    "trial_length": 9,
    "click_num": 6,
    "RT": 544,
    "action": 0,
    "reward": 3.1
  },
  {
    "phase": "TASK",
    "condition": "Cond3",
    "trial_num": 62,
    "trial_length": 9,
    "click_num": 7,
    "RT": 1104,
    "action": 0,
    "reward": 3.1
  },
  {
    "phase": "TASK",
    "condition": "Cond3",
    "trial_num": 62,
    "trial_length": 9,
    "click_num": 8,
    "RT": 552,
    "action": 0,
    "reward": 3.1
  },
  {
    "phase": "TASK",
    "condition": "Cond3",
    "trial_num": 62,
    "trial_length": 9,
    "click_num": 9,
    "RT": 656,
    "action": 0,
    "reward": 3.1
  },
  {
    "phase": "TASK",
    "condition": "Cond3",
    "trial_num": 63,
    "trial_length": 10,
    "click_num": 1,
    "RT": 1136,
    "action": 1,
    "reward": 3.6
  },
  {
    "phase": "TASK",
    "condition": "Cond3",
    "trial_num": 63,
    "trial_length": 10,
    "click_num": 2,
    "RT": 1448,
    "action": 0,
    "reward": 3.6
  },
  {
    "phase": "TASK",
    "condition": "Cond3",
    "trial_num": 63,
    "trial_length": 10,
    "click_num": 3,
    "RT": 993,
    "action": 0,
    "reward": 3.6
  },
  {
    "phase": "TASK",
    "condition": "Cond3",
    "trial_num": 63,
    "trial_length": 10,
    "click_num": 4,
    "RT": 565,
    "action": 0,
    "reward": 3.6
  },
  {
    "phase": "TASK",
    "condition": "Cond3",
    "trial_num": 63,
    "trial_length": 10,
    "click_num": 5,
    "RT": 632,
    "action": 0,
    "reward": 3.6
  },
  {
    "phase": "TASK",
    "condition": "Cond3",
    "trial_num": 63,
    "trial_length": 10,
    "click_num": 6,
    "RT": 593,
    "action": 0,
    "reward": 3.6
  },
  {
    "phase": "TASK",
    "condition": "Cond3",
    "trial_num": 63,
    "trial_length": 10,
    "click_num": 7,
    "RT": 1602,
    "action": 1,
    "reward": 2.6
  },
  {
    "phase": "TASK",
    "condition": "Cond3",
    "trial_num": 63,
    "trial_length": 10,
    "click_num": 8,
    "RT": 663,
    "action": 0,
    "reward": 3.6
  },
  {
    "phase": "TASK",
    "condition": "Cond3",
    "trial_num": 63,
    "trial_length": 10,
    "click_num": 9,
    "RT": 566,
    "action": 0,
    "reward": 3.6
  },
  {
    "phase": "TASK",
    "condition": "Cond3",
    "trial_num": 63,
    "trial_length": 10,
    "click_num": 10,
    "RT": 512,
    "action": 0,
    "reward": 3.6
  },
  {
    "phase": "TASK",
    "condition": "Cond3",
    "trial_num": 64,
    "trial_length": 7,
    "click_num": 1,
    "RT": 1594,
    "action": 1,
    "reward": 3.1
  },
  {
    "phase": "TASK",
    "condition": "Cond3",
    "trial_num": 64,
    "trial_length": 7,
    "click_num": 2,
    "RT": 984,
    "action": 1,
    "reward": 2.9
  },
  {
    "phase": "TASK",
    "condition": "Cond3",
    "trial_num": 64,
    "trial_length": 7,
    "click_num": 3,
    "RT": 833,
    "action": 1,
    "reward": 4.2
  },
  {
    "phase": "TASK",
    "condition": "Cond3",
    "trial_num": 64,
    "trial_length": 7,
    "click_num": 4,
    "RT": 673,
    "action": 0,
    "reward": 4.2
  },
  {
    "phase": "TASK",
    "condition": "Cond3",
    "trial_num": 64,
    "trial_length": 7,
    "click_num": 5,
    "RT": 615,
    "action": 0,
    "reward": 4.2
  },
  {
    "phase": "TASK",
    "condition": "Cond3",
    "trial_num": 64,
    "trial_length": 7,
    "click_num": 6,
    "RT": 615,
    "action": 0,
    "reward": 4.2
  },
  {
    "phase": "TASK",
    "condition": "Cond3",
    "trial_num": 64,
    "trial_length": 7,
    "click_num": 7,
    "RT": 1017,
    "action": 0,
    "reward": 4.2
  },
  {
    "phase": "TASK",
    "condition": "Cond3",
    "trial_num": 65,
    "trial_length": 9,
    "click_num": 1,
    "RT": 1529,
    "action": 1,
    "reward": 3.2
  },
  {
    "phase": "TASK",
    "condition": "Cond3",
    "trial_num": 65,
    "trial_length": 9,
    "click_num": 2,
    "RT": 1838,
    "action": 1,
    "reward": 2.6
  },
  {
    "phase": "TASK",
    "condition": "Cond3",
    "trial_num": 65,
    "trial_length": 9,
    "click_num": 3,
    "RT": 1544,
    "action": 1,
    "reward": 3.3
  },
  {
    "phase": "TASK",
    "condition": "Cond3",
    "trial_num": 65,
    "trial_length": 9,
    "click_num": 4,
    "RT": 784,
    "action": 0,
    "reward": 3.3
  },
  {
    "phase": "TASK",
    "condition": "Cond3",
    "trial_num": 65,
    "trial_length": 9,
    "click_num": 5,
    "RT": 728,
    "action": 0,
    "reward": 3.3
  },
  {
    "phase": "TASK",
    "condition": "Cond3",
    "trial_num": 65,
    "trial_length": 9,
    "click_num": 6,
    "RT": 640,
    "action": 0,
    "reward": 3.3
  },
  {
    "phase": "TASK",
    "condition": "Cond3",
    "trial_num": 65,
    "trial_length": 9,
    "click_num": 7,
    "RT": 1368,
    "action": 0,
    "reward": 3.3
  },
  {
    "phase": "TASK",
    "condition": "Cond3",
    "trial_num": 65,
    "trial_length": 9,
    "click_num": 8,
    "RT": 994,
    "action": 0,
    "reward": 3.3
  },
  {
    "phase": "TASK",
    "condition": "Cond3",
    "trial_num": 65,
    "trial_length": 9,
    "click_num": 9,
    "RT": 727,
    "action": 0,
    "reward": 3.3
  },
  {
    "phase": "TASK",
    "condition": "Cond3",
    "trial_num": 66,
    "trial_length": 9,
    "click_num": 1,
    "RT": 1503,
    "action": 1,
    "reward": 2.8
  },
  {
    "phase": "TASK",
    "condition": "Cond3",
    "trial_num": 66,
    "trial_length": 9,
    "click_num": 2,
    "RT": 1298,
    "action": 1,
    "reward": 3
  },
  {
    "phase": "TASK",
    "condition": "Cond3",
    "trial_num": 66,
    "trial_length": 9,
    "click_num": 3,
    "RT": 949,
    "action": 1,
    "reward": 3.4
  },
  {
    "phase": "TASK",
    "condition": "Cond3",
    "trial_num": 66,
    "trial_length": 9,
    "click_num": 4,
    "RT": 1016,
    "action": 0,
    "reward": 3.4
  },
  {
    "phase": "TASK",
    "condition": "Cond3",
    "trial_num": 66,
    "trial_length": 9,
    "click_num": 5,
    "RT": 729,
    "action": 0,
    "reward": 3.4
  },
  {
    "phase": "TASK",
    "condition": "Cond3",
    "trial_num": 66,
    "trial_length": 9,
    "click_num": 6,
    "RT": 623,
    "action": 0,
    "reward": 3.4
  },
  {
    "phase": "TASK",
    "condition": "Cond3",
    "trial_num": 66,
    "trial_length": 9,
    "click_num": 7,
    "RT": 752,
    "action": 0,
    "reward": 3.4
  },
  {
    "phase": "TASK",
    "condition": "Cond3",
    "trial_num": 66,
    "trial_length": 9,
    "click_num": 8,
    "RT": 728,
    "action": 1,
    "reward": 2.8
  },
  {
    "phase": "TASK",
    "condition": "Cond3",
    "trial_num": 66,
    "trial_length": 9,
    "click_num": 9,
    "RT": 1178,
    "action": 0,
    "reward": 3.4
  },
  {
    "phase": "TASK",
    "condition": "Cond3",
    "trial_num": 67,
    "trial_length": 8,
    "click_num": 1,
    "RT": 1840,
    "action": 1,
    "reward": 3.2
  },
  {
    "phase": "TASK",
    "condition": "Cond3",
    "trial_num": 67,
    "trial_length": 8,
    "click_num": 2,
    "RT": 1101,
    "action": 1,
    "reward": 2.6
  },
  {
    "phase": "TASK",
    "condition": "Cond3",
    "trial_num": 67,
    "trial_length": 8,
    "click_num": 3,
    "RT": 1482,
    "action": 0,
    "reward": 3.2
  },
  {
    "phase": "TASK",
    "condition": "Cond3",
    "trial_num": 67,
    "trial_length": 8,
    "click_num": 4,
    "RT": 1463,
    "action": 0,
    "reward": 3.2
  },
  {
    "phase": "TASK",
    "condition": "Cond3",
    "trial_num": 67,
    "trial_length": 8,
    "click_num": 5,
    "RT": 639,
    "action": 0,
    "reward": 3.2
  },
  {
    "phase": "TASK",
    "condition": "Cond3",
    "trial_num": 67,
    "trial_length": 8,
    "click_num": 6,
    "RT": 881,
    "action": 1,
    "reward": 2.3
  },
  {
    "phase": "TASK",
    "condition": "Cond3",
    "trial_num": 67,
    "trial_length": 8,
    "click_num": 7,
    "RT": 683,
    "action": 0,
    "reward": 3.2
  },
  {
    "phase": "TASK",
    "condition": "Cond3",
    "trial_num": 67,
    "trial_length": 8,
    "click_num": 8,
    "RT": 602,
    "action": 0,
    "reward": 3.2
  },
  {
    "phase": "TASK",
    "condition": "Cond3",
    "trial_num": 68,
    "trial_length": 7,
    "click_num": 1,
    "RT": 900,
    "action": 1,
    "reward": 2.9
  },
  {
    "phase": "TASK",
    "condition": "Cond3",
    "trial_num": 68,
    "trial_length": 7,
    "click_num": 2,
    "RT": 1178,
    "action": 1,
    "reward": 3
  },
  {
    "phase": "TASK",
    "condition": "Cond3",
    "trial_num": 68,
    "trial_length": 7,
    "click_num": 3,
    "RT": 957,
    "action": 1,
    "reward": 3.2
  },
  {
    "phase": "TASK",
    "condition": "Cond3",
    "trial_num": 68,
    "trial_length": 7,
    "click_num": 4,
    "RT": 681,
    "action": 0,
    "reward": 3.2
  },
  {
    "phase": "TASK",
    "condition": "Cond3",
    "trial_num": 68,
    "trial_length": 7,
    "click_num": 5,
    "RT": 1577,
    "action": 1,
    "reward": 3.2
  },
  {
    "phase": "TASK",
    "condition": "Cond3",
    "trial_num": 68,
    "trial_length": 7,
    "click_num": 6,
    "RT": 823,
    "action": 0,
    "reward": 3.2
  },
  {
    "phase": "TASK",
    "condition": "Cond3",
    "trial_num": 68,
    "trial_length": 7,
    "click_num": 7,
    "RT": 824,
    "action": 1,
    "reward": 2.5
  },
  {
    "phase": "TASK",
    "condition": "Cond3",
    "trial_num": 69,
    "trial_length": 8,
    "click_num": 1,
    "RT": 1309,
    "action": 1,
    "reward": 2.9
  },
  {
    "phase": "TASK",
    "condition": "Cond3",
    "trial_num": 69,
    "trial_length": 8,
    "click_num": 2,
    "RT": 1242,
    "action": 1,
    "reward": 3.6
  },
  {
    "phase": "TASK",
    "condition": "Cond3",
    "trial_num": 69,
    "trial_length": 8,
    "click_num": 3,
    "RT": 1227,
    "action": 0,
    "reward": 3.6
  },
  {
    "phase": "TASK",
    "condition": "Cond3",
    "trial_num": 69,
    "trial_length": 8,
    "click_num": 4,
    "RT": 826,
    "action": 0,
    "reward": 3.6
  },
  {
    "phase": "TASK",
    "condition": "Cond3",
    "trial_num": 69,
    "trial_length": 8,
    "click_num": 5,
    "RT": 681,
    "action": 0,
    "reward": 3.6
  },
  {
    "phase": "TASK",
    "condition": "Cond3",
    "trial_num": 69,
    "trial_length": 8,
    "click_num": 6,
    "RT": 593,
    "action": 0,
    "reward": 3.6
  },
  {
    "phase": "TASK",
    "condition": "Cond3",
    "trial_num": 69,
    "trial_length": 8,
    "click_num": 7,
    "RT": 671,
    "action": 0,
    "reward": 3.6
  },
  {
    "phase": "TASK",
    "condition": "Cond3",
    "trial_num": 69,
    "trial_length": 8,
    "click_num": 8,
    "RT": 583,
    "action": 0,
    "reward": 3.6
  },
  {
    "phase": "TASK",
    "condition": "Cond3",
    "trial_num": 70,
    "trial_length": 5,
    "click_num": 1,
    "RT": 1056,
    "action": 1,
    "reward": 2.3
  },
  {
    "phase": "TASK",
    "condition": "Cond3",
    "trial_num": 70,
    "trial_length": 5,
    "click_num": 2,
    "RT": 931,
    "action": 1,
    "reward": 2.3
  },
  {
    "phase": "TASK",
    "condition": "Cond3",
    "trial_num": 70,
    "trial_length": 5,
    "click_num": 3,
    "RT": 735,
    "action": 1,
    "reward": 2.6
  },
  {
    "phase": "TASK",
    "condition": "Cond3",
    "trial_num": 70,
    "trial_length": 5,
    "click_num": 4,
    "RT": 767,
    "action": 1,
    "reward": 2.9
  },
  {
    "phase": "TASK",
    "condition": "Cond3",
    "trial_num": 70,
    "trial_length": 5,
    "click_num": 5,
    "RT": 696,
    "action": 1,
    "reward": 3
  },
  {
    "phase": "TASK",
    "condition": "Cond3",
    "trial_num": 71,
    "trial_length": 8,
    "click_num": 1,
    "RT": 933,
    "action": 1,
    "reward": 4
  },
  {
    "phase": "TASK",
    "condition": "Cond3",
    "trial_num": 71,
    "trial_length": 8,
    "click_num": 2,
    "RT": 1799,
    "action": 0,
    "reward": 4
  },
  {
    "phase": "TASK",
    "condition": "Cond3",
    "trial_num": 71,
    "trial_length": 8,
    "click_num": 3,
    "RT": 994,
    "action": 0,
    "reward": 4
  },
  {
    "phase": "TASK",
    "condition": "Cond3",
    "trial_num": 71,
    "trial_length": 8,
    "click_num": 4,
    "RT": 661,
    "action": 0,
    "reward": 4
  },
  {
    "phase": "TASK",
    "condition": "Cond3",
    "trial_num": 71,
    "trial_length": 8,
    "click_num": 5,
    "RT": 640,
    "action": 0,
    "reward": 4
  },
  {
    "phase": "TASK",
    "condition": "Cond3",
    "trial_num": 71,
    "trial_length": 8,
    "click_num": 6,
    "RT": 640,
    "action": 0,
    "reward": 4
  },
  {
    "phase": "TASK",
    "condition": "Cond3",
    "trial_num": 71,
    "trial_length": 8,
    "click_num": 7,
    "RT": 676,
    "action": 0,
    "reward": 4
  },
  {
    "phase": "TASK",
    "condition": "Cond3",
    "trial_num": 71,
    "trial_length": 8,
    "click_num": 8,
    "RT": 671,
    "action": 0,
    "reward": 4
  },
  {
    "phase": "TASK",
    "condition": "Cond3",
    "trial_num": 72,
    "trial_length": 8,
    "click_num": 1,
    "RT": 1070,
    "action": 1,
    "reward": 3.4
  },
  {
    "phase": "TASK",
    "condition": "Cond3",
    "trial_num": 72,
    "trial_length": 8,
    "click_num": 2,
    "RT": 1217,
    "action": 1,
    "reward": 3.6
  },
  {
    "phase": "TASK",
    "condition": "Cond3",
    "trial_num": 72,
    "trial_length": 8,
    "click_num": 3,
    "RT": 1735,
    "action": 1,
    "reward": 2
  },
  {
    "phase": "TASK",
    "condition": "Cond3",
    "trial_num": 72,
    "trial_length": 8,
    "click_num": 4,
    "RT": 672,
    "action": 0,
    "reward": 3.6
  },
  {
    "phase": "TASK",
    "condition": "Cond3",
    "trial_num": 72,
    "trial_length": 8,
    "click_num": 5,
    "RT": 532,
    "action": 0,
    "reward": 3.6
  },
  {
    "phase": "TASK",
    "condition": "Cond3",
    "trial_num": 72,
    "trial_length": 8,
    "click_num": 6,
    "RT": 1660,
    "action": 0,
    "reward": 3.6
  },
  {
    "phase": "TASK",
    "condition": "Cond3",
    "trial_num": 72,
    "trial_length": 8,
    "click_num": 7,
    "RT": 584,
    "action": 0,
    "reward": 3.6
  },
  {
    "phase": "TASK",
    "condition": "Cond3",
    "trial_num": 72,
    "trial_length": 8,
    "click_num": 8,
    "RT": 696,
    "action": 0,
    "reward": 3.6
  },
  {
    "phase": "TASK",
    "condition": "Cond3",
    "trial_num": 73,
    "trial_length": 7,
    "click_num": 1,
    "RT": 786,
    "action": 1,
    "reward": 2.7
  },
  {
    "phase": "TASK",
    "condition": "Cond3",
    "trial_num": 73,
    "trial_length": 7,
    "click_num": 2,
    "RT": 1101,
    "action": 1,
    "reward": 3.8
  },
  {
    "phase": "TASK",
    "condition": "Cond3",
    "trial_num": 73,
    "trial_length": 7,
    "click_num": 3,
    "RT": 1255,
    "action": 0,
    "reward": 3.8
  },
  {
    "phase": "TASK",
    "condition": "Cond3",
    "trial_num": 73,
    "trial_length": 7,
    "click_num": 4,
    "RT": 592,
    "action": 0,
    "reward": 3.8
  },
  {
    "phase": "TASK",
    "condition": "Cond3",
    "trial_num": 73,
    "trial_length": 7,
    "click_num": 5,
    "RT": 592,
    "action": 0,
    "reward": 3.8
  },
  {
    "phase": "TASK",
    "condition": "Cond3",
    "trial_num": 73,
    "trial_length": 7,
    "click_num": 6,
    "RT": 577,
    "action": 0,
    "reward": 3.8
  },
  {
    "phase": "TASK",
    "condition": "Cond3",
    "trial_num": 73,
    "trial_length": 7,
    "click_num": 7,
    "RT": 632,
    "action": 0,
    "reward": 3.8
  },
  {
    "phase": "TASK",
    "condition": "Cond3",
    "trial_num": 74,
    "trial_length": 10,
    "click_num": 1,
    "RT": 872,
    "action": 1,
    "reward": 2.6
  },
  {
    "phase": "TASK",
    "condition": "Cond3",
    "trial_num": 74,
    "trial_length": 10,
    "click_num": 2,
    "RT": 720,
    "action": 1,
    "reward": 2.3
  },
  {
    "phase": "TASK",
    "condition": "Cond3",
    "trial_num": 74,
    "trial_length": 10,
    "click_num": 3,
    "RT": 731,
    "action": 1,
    "reward": 3.3
  },
  {
    "phase": "TASK",
    "condition": "Cond3",
    "trial_num": 74,
    "trial_length": 10,
    "click_num": 4,
    "RT": 902,
    "action": 1,
    "reward": 2.4
  },
  {
    "phase": "TASK",
    "condition": "Cond3",
    "trial_num": 74,
    "trial_length": 10,
    "click_num": 5,
    "RT": 765,
    "action": 0,
    "reward": 3.3
  },
  {
    "phase": "TASK",
    "condition": "Cond3",
    "trial_num": 74,
    "trial_length": 10,
    "click_num": 6,
    "RT": 618,
    "action": 0,
    "reward": 3.3
  },
  {
    "phase": "TASK",
    "condition": "Cond3",
    "trial_num": 74,
    "trial_length": 10,
    "click_num": 7,
    "RT": 603,
    "action": 0,
    "reward": 3.3
  },
  {
    "phase": "TASK",
    "condition": "Cond3",
    "trial_num": 74,
    "trial_length": 10,
    "click_num": 8,
    "RT": 525,
    "action": 0,
    "reward": 3.3
  },
  {
    "phase": "TASK",
    "condition": "Cond3",
    "trial_num": 74,
    "trial_length": 10,
    "click_num": 9,
    "RT": 824,
    "action": 0,
    "reward": 3.3
  },
  {
    "phase": "TASK",
    "condition": "Cond3",
    "trial_num": 74,
    "trial_length": 10,
    "click_num": 10,
    "RT": 514,
    "action": 0,
    "reward": 3.3
  },
  {
    "phase": "TASK",
    "condition": "Cond3",
    "trial_num": 75,
    "trial_length": 9,
    "click_num": 1,
    "RT": 2327,
    "action": 1,
    "reward": 2.5
  },
  {
    "phase": "TASK",
    "condition": "Cond3",
    "trial_num": 75,
    "trial_length": 9,
    "click_num": 2,
    "RT": 1294,
    "action": 1,
    "reward": 2.2
  },
  {
    "phase": "TASK",
    "condition": "Cond3",
    "trial_num": 75,
    "trial_length": 9,
    "click_num": 3,
    "RT": 795,
    "action": 1,
    "reward": 3.1
  },
  {
    "phase": "TASK",
    "condition": "Cond3",
    "trial_num": 75,
    "trial_length": 9,
    "click_num": 4,
    "RT": 1414,
    "action": 1,
    "reward": 3.6
  },
  {
    "phase": "TASK",
    "condition": "Cond3",
    "trial_num": 75,
    "trial_length": 9,
    "click_num": 5,
    "RT": 1064,
    "action": 0,
    "reward": 3.6
  },
  {
    "phase": "TASK",
    "condition": "Cond3",
    "trial_num": 75,
    "trial_length": 9,
    "click_num": 6,
    "RT": 871,
    "action": 0,
    "reward": 3.6
  },
  {
    "phase": "TASK",
    "condition": "Cond3",
    "trial_num": 75,
    "trial_length": 9,
    "click_num": 7,
    "RT": 640,
    "action": 0,
    "reward": 3.6
  },
  {
    "phase": "TASK",
    "condition": "Cond3",
    "trial_num": 75,
    "trial_length": 9,
    "click_num": 8,
    "RT": 600,
    "action": 0,
    "reward": 3.6
  },
  {
    "phase": "TASK",
    "condition": "Cond3",
    "trial_num": 75,
    "trial_length": 9,
    "click_num": 9,
    "RT": 642,
    "action": 0,
    "reward": 3.6
  },
  {
    "phase": "TASK",
    "condition": "Cond3",
    "trial_num": 76,
    "trial_length": 5,
    "click_num": 1,
    "RT": 1118,
    "action": 1,
    "reward": 2.4
  },
  {
    "phase": "TASK",
    "condition": "Cond3",
    "trial_num": 76,
    "trial_length": 5,
    "click_num": 2,
    "RT": 1031,
    "action": 1,
    "reward": 3.2
  },
  {
    "phase": "TASK",
    "condition": "Cond3",
    "trial_num": 76,
    "trial_length": 5,
    "click_num": 3,
    "RT": 780,
    "action": 1,
    "reward": 3.1
  },
  {
    "phase": "TASK",
    "condition": "Cond3",
    "trial_num": 76,
    "trial_length": 5,
    "click_num": 4,
    "RT": 692,
    "action": 0,
    "reward": 3.2
  },
  {
    "phase": "TASK",
    "condition": "Cond3",
    "trial_num": 76,
    "trial_length": 5,
    "click_num": 5,
    "RT": 601,
    "action": 0,
    "reward": 3.2
  },
  {
    "phase": "TASK",
    "condition": "Cond3",
    "trial_num": 77,
    "trial_length": 9,
    "click_num": 1,
    "RT": 886,
    "action": 1,
    "reward": 3.2
  },
  {
    "phase": "TASK",
    "condition": "Cond3",
    "trial_num": 77,
    "trial_length": 9,
    "click_num": 2,
    "RT": 985,
    "action": 1,
    "reward": 3.2
  },
  {
    "phase": "TASK",
    "condition": "Cond3",
    "trial_num": 77,
    "trial_length": 9,
    "click_num": 3,
    "RT": 1175,
    "action": 1,
    "reward": 3.5
  },
  {
    "phase": "TASK",
    "condition": "Cond3",
    "trial_num": 77,
    "trial_length": 9,
    "click_num": 4,
    "RT": 2090,
    "action": 1,
    "reward": 3.1
  },
  {
    "phase": "TASK",
    "condition": "Cond3",
    "trial_num": 77,
    "trial_length": 9,
    "click_num": 5,
    "RT": 1056,
    "action": 0,
    "reward": 3.5
  },
  {
    "phase": "TASK",
    "condition": "Cond3",
    "trial_num": 77,
    "trial_length": 9,
    "click_num": 6,
    "RT": 607,
    "action": 0,
    "reward": 3.5
  },
  {
    "phase": "TASK",
    "condition": "Cond3",
    "trial_num": 77,
    "trial_length": 9,
    "click_num": 7,
    "RT": 623,
    "action": 0,
    "reward": 3.5
  },
  {
    "phase": "TASK",
    "condition": "Cond3",
    "trial_num": 77,
    "trial_length": 9,
    "click_num": 8,
    "RT": 562,
    "action": 0,
    "reward": 3.5
  },
  {
    "phase": "TASK",
    "condition": "Cond3",
    "trial_num": 77,
    "trial_length": 9,
    "click_num": 9,
    "RT": 559,
    "action": 0,
    "reward": 3.5
  },
  {
    "phase": "TASK",
    "condition": "Cond3",
    "trial_num": 78,
    "trial_length": 8,
    "click_num": 1,
    "RT": 1102,
    "action": 1,
    "reward": 3.1
  },
  {
    "phase": "TASK",
    "condition": "Cond3",
    "trial_num": 78,
    "trial_length": 8,
    "click_num": 2,
    "RT": 880,
    "action": 1,
    "reward": 2.4
  },
  {
    "phase": "TASK",
    "condition": "Cond3",
    "trial_num": 78,
    "trial_length": 8,
    "click_num": 3,
    "RT": 736,
    "action": 1,
    "reward": 3.1
  },
  {
    "phase": "TASK",
    "condition": "Cond3",
    "trial_num": 78,
    "trial_length": 8,
    "click_num": 4,
    "RT": 696,
    "action": 0,
    "reward": 3.1
  },
  {
    "phase": "TASK",
    "condition": "Cond3",
    "trial_num": 78,
    "trial_length": 8,
    "click_num": 5,
    "RT": 672,
    "action": 0,
    "reward": 3.1
  },
  {
    "phase": "TASK",
    "condition": "Cond3",
    "trial_num": 78,
    "trial_length": 8,
    "click_num": 6,
    "RT": 792,
    "action": 0,
    "reward": 3.1
  },
  {
    "phase": "TASK",
    "condition": "Cond3",
    "trial_num": 78,
    "trial_length": 8,
    "click_num": 7,
    "RT": 623,
    "action": 0,
    "reward": 3.1
  },
  {
    "phase": "TASK",
    "condition": "Cond3",
    "trial_num": 78,
    "trial_length": 8,
    "click_num": 8,
    "RT": 659,
    "action": 0,
    "reward": 3.1
  },
  {
    "phase": "TASK",
    "condition": "Cond3",
    "trial_num": 79,
    "trial_length": 10,
    "click_num": 1,
    "RT": 1011,
    "action": 1,
    "reward": 3.2
  },
  {
    "phase": "TASK",
    "condition": "Cond3",
    "trial_num": 79,
    "trial_length": 10,
    "click_num": 2,
    "RT": 976,
    "action": 1,
    "reward": 3
  },
  {
    "phase": "TASK",
    "condition": "Cond3",
    "trial_num": 79,
    "trial_length": 10,
    "click_num": 3,
    "RT": 1376,
    "action": 1,
    "reward": 2.5
  },
  {
    "phase": "TASK",
    "condition": "Cond3",
    "trial_num": 79,
    "trial_length": 10,
    "click_num": 4,
    "RT": 1211,
    "action": 1,
    "reward": 2.5
  },
  {
    "phase": "TASK",
    "condition": "Cond3",
    "trial_num": 79,
