[
  {
    "phase": "TASK",
    "condition": "Cond3",
    "trial_num": 1,
    "trial_length": 9,
    "click_num": 1,
    "RT": 4920,
    "action": 1,
    "reward": 2.2
  },
  {
    "phase": "TASK",
    "condition": "Cond3",
    "trial_num": 1,
    "trial_length": 9,
    "click_num": 2,
    "RT": 7453,
    "action": 1,
    "reward": 3.2
  },
  {
    "phase": "TASK",
    "condition": "Cond3",
    "trial_num": 1,
    "trial_length": 9,
    "click_num": 3,
    "RT": 8392,
    "action": 1,
    "reward": 3.3
  },
  {
    "phase": "TASK",
    "condition": "Cond3",
    "trial_num": 1,
    "trial_length": 9,
    "click_num": 4,
    "RT": 5472,
    "action": 1,
    "reward": 4.2
  },
  {
    "phase": "TASK",
    "condition": "Cond3",
    "trial_num": 1,
    "trial_length": 9,
    "click_num": 5,
    "RT": 6081,
    "action": 1,
    "reward": 4.1
  },
  {
    "phase": "TASK",
    "condition": "Cond3",
    "trial_num": 1,
    "trial_length": 9,
    "click_num": 6,
    "RT": 5352,
    "action": 1,
    "reward": 3.2
  },
  {
    "phase": "TASK",
    "condition": "Cond3",
    "trial_num": 1,
    "trial_length": 9,
    "click_num": 7,
    "RT": 3079,
    "action": 1,
    "reward": 4.1
  },
  {
    "phase": "TASK",
    "condition": "Cond3",
    "trial_num": 1,
    "trial_length": 9,
    "click_num": 8,
    "RT": 4168,
    "action": 0,
    "reward": 4.2
  },
  {
    "phase": "TASK",
    "condition": "Cond3",
    "trial_num": 1,
    "trial_length": 9,
    "click_num": 9,
    "RT": 2543,
    "action": 0,
    "reward": 4.2
  },
  {
    "phase": "TASK",
    "condition": "Cond3",
    "trial_num": 2,
    "trial_length": 7,
    "click_num": 1,
    "RT": 4167,
    "action": 1,
    "reward": 2.8
  },
  {
    "phase": "TASK",
    "condition": "Cond3",
    "trial_num": 2,
    "trial_length": 7,
    "click_num": 2,
    "RT": 3567,
    "action": 1,
    "reward": 3.6
  },
  {
    "phase": "TASK",
    "condition": "Cond3",
    "trial_num": 2,
    "trial_length": 7,
    "click_num": 3,
    "RT": 3408,
    "action": 1,
    "reward": 3.1
  },
  {
    "phase": "TASK",
    "condition": "Cond3",
    "trial_num": 2,
    "trial_length": 7,
    "click_num": 4,
    "RT": 1671,
    "action": 1,
    "reward": 1.9
  },
  {
    "phase": "TASK",
    "condition": "Cond3",
    "trial_num": 2,
    "trial_length": 7,
    "click_num": 5,
    "RT": 1825,
    "action": 1,
    "reward": 2.4
  },
  {
    "phase": "TASK",
    "condition": "Cond3",
    "trial_num": 2,
    "trial_length": 7,
    "click_num": 6,
    "RT": 4215,
    "action": 0,
    "reward": 3.6
  },
  {
    "phase": "TASK",
    "condition": "Cond3",
    "trial_num": 2,
    "trial_length": 7,
    "click_num": 7,
    "RT": 3858,
    "action": 1,
    "reward": 2.4
  },
  {
    "phase": "TASK",
    "condition": "Cond3",
    "trial_num": 3,
    "trial_length": 8,
    "click_num": 1,
    "RT": 3440,
    "action": 1,
    "reward": 2.1
  },
  {
    "phase": "TASK",
    "condition": "Cond3",
    "trial_num": 3,
    "trial_length": 8,
    "click_num": 2,
    "RT": 2381,
    "action": 1,
    "reward": 3.8
  },
  {
    "phase": "TASK",
    "condition": "Cond3",
    "trial_num": 3,
    "trial_length": 8,
    "click_num": 3,
    "RT": 4041,
    "action": 1,
    "reward": 3.5
  },
  {
    "phase": "TASK",
    "condition": "Cond3",
    "trial_num": 3,
    "trial_length": 8,
    "click_num": 4,
    "RT": 1487,
    "action": 1,
    "reward": 2.9
  },
  {
    "phase": "TASK",
    "condition": "Cond3",
    "trial_num": 3,
    "trial_length": 8,
    "click_num": 5,
    "RT": 1529,
    "action": 1,
    "reward": 2
  },
  {
    "phase": "TASK",
    "condition": "Cond3",
    "trial_num": 3,
    "trial_length": 8,
    "click_num": 6,
    "RT": 2663,
    "action": 1,
    "reward": 3.3
  },
  {
    "phase": "TASK",
    "condition": "Cond3",
    "trial_num": 3,
    "trial_length": 8,
    "click_num": 7,
    "RT": 2393,
    "action": 0,
    "reward": 3.8
  },
  {
    "phase": "TASK",
    "condition": "Cond3",
    "trial_num": 3,
    "trial_length": 8,
    "click_num": 8,
    "RT": 1313,
    "action": 1,
    "reward": 3
  },
  {
    "phase": "TASK",
    "condition": "Cond3",
    "trial_num": 4,
    "trial_length": 7,
    "click_num": 1,
    "RT": 1666,
    "action": 1,
    "reward": 3.4
  },
  {
    "phase": "TASK",
    "condition": "Cond3",
    "trial_num": 4,
    "trial_length": 7,
    "click_num": 2,
    "RT": 2951,
    "action": 1,
    "reward": 2.5
  },
  {
    "phase": "TASK",
    "condition": "Cond3",
    "trial_num": 4,
    "trial_length": 7,
    "click_num": 3,
    "RT": 1697,
    "action": 1,
    "reward": 3.7
  },
  {
    "phase": "TASK",
    "condition": "Cond3",
    "trial_num": 4,
    "trial_length": 7,
    "click_num": 4,
    "RT": 2806,
    "action": 0,
    "reward": 3.7
  },
  {
    "phase": "TASK",
    "condition": "Cond3",
    "trial_num": 4,
    "trial_length": 7,
    "click_num": 5,
    "RT": 1756,
    "action": 0,
    "reward": 3.7
  },
  {
    "phase": "TASK",
    "condition": "Cond3",
    "trial_num": 4,
    "trial_length": 7,
    "click_num": 6,
    "RT": 1502,
    "action": 0,
    "reward": 3.7
  },
  {
    "phase": "TASK",
    "condition": "Cond3",
    "trial_num": 4,
    "trial_length": 7,
    "click_num": 7,
    "RT": 1256,
    "action": 0,
    "reward": 3.7
  },
  {
    "phase": "TASK",
    "condition": "Cond3",
    "trial_num": 5,
    "trial_length": 8,
    "click_num": 1,
    "RT": 2069,
    "action": 1,
    "reward": 2.4
  },
  {
    "phase": "TASK",
    "condition": "Cond3",
    "trial_num": 5,
    "trial_length": 8,
    "click_num": 2,
    "RT": 2064,
    "action": 1,
    "reward": 3.2
  },
  {
    "phase": "TASK",
    "condition": "Cond3",
    "trial_num": 5,
    "trial_length": 8,
    "click_num": 3,
    "RT": 2073,
    "action": 1,
    "reward": 3.9
  },
  {
    "phase": "TASK",
    "condition": "Cond3",
    "trial_num": 5,
    "trial_length": 8,
    "click_num": 4,
    "RT": 2816,
    "action": 1,
    "reward": 3.1
  },
  {
    "phase": "TASK",
    "condition": "Cond3",
    "trial_num": 5,
    "trial_length": 8,
    "click_num": 5,
    "RT": 2066,
    "action": 0,
    "reward": 3.9
  },
  {
    "phase": "TASK",
    "condition": "Cond3",
    "trial_num": 5,
    "trial_length": 8,
    "click_num": 6,
    "RT": 1973,
    "action": 0,
    "reward": 3.9
  },
  {
    "phase": "TASK",
    "condition": "Cond3",
    "trial_num": 5,
    "trial_length": 8,
    "click_num": 7,
    "RT": 1376,
    "action": 0,
    "reward": 3.9
  },
  {
    "phase": "TASK",
    "condition": "Cond3",
    "trial_num": 5,
    "trial_length": 8,
    "click_num": 8,
    "RT": 1912,
    "action": 0,
    "reward": 3.9
  },
  {
    "phase": "TASK",
    "condition": "Cond3",
    "trial_num": 6,
    "trial_length": 10,
    "click_num": 1,
    "RT": 4364,
    "action": 1,
    "reward": 3.6
  },
  {
    "phase": "TASK",
    "condition": "Cond3",
    "trial_num": 6,
    "trial_length": 10,
    "click_num": 2,
    "RT": 6288,
    "action": 0,
    "reward": 3.6
  },
  {
    "phase": "TASK",
    "condition": "Cond3",
    "trial_num": 6,
    "trial_length": 10,
    "click_num": 3,
    "RT": 1331,
    "action": 0,
    "reward": 3.6
  },
  {
    "phase": "TASK",
    "condition": "Cond3",
    "trial_num": 6,
    "trial_length": 10,
    "click_num": 4,
    "RT": 1453,
    "action": 0,
    "reward": 3.6
  },
  {
    "phase": "TASK",
    "condition": "Cond3",
    "trial_num": 6,
    "trial_length": 10,
    "click_num": 5,
    "RT": 1353,
    "action": 0,
    "reward": 3.6
  },
  {
    "phase": "TASK",
    "condition": "Cond3",
    "trial_num": 6,
    "trial_length": 10,
    "click_num": 6,
    "RT": 1359,
    "action": 0,
    "reward": 3.6
  },
  {
    "phase": "TASK",
    "condition": "Cond3",
    "trial_num": 6,
    "trial_length": 10,
    "click_num": 7,
    "RT": 1103,
    "action": 0,
    "reward": 3.6
  },
  {
    "phase": "TASK",
    "condition": "Cond3",
    "trial_num": 6,
    "trial_length": 10,
    "click_num": 8,
    "RT": 1329,
    "action": 0,
    "reward": 3.6
  },
  {
    "phase": "TASK",
    "condition": "Cond3",
    "trial_num": 6,
    "trial_length": 10,
    "click_num": 9,
    "RT": 1216,
    "action": 0,
    "reward": 3.6
  },
  {
    "phase": "TASK",
    "condition": "Cond3",
    "trial_num": 6,
    "trial_length": 10,
    "click_num": 10,
    "RT": 1447,
    "action": 0,
    "reward": 3.6
  },
  {
    "phase": "TASK",
    "condition": "Cond3",
    "trial_num": 7,
    "trial_length": 10,
    "click_num": 1,
    "RT": 3215,
    "action": 1,
    "reward": 3.1
  },
  {
    "phase": "TASK",
    "condition": "Cond3",
    "trial_num": 7,
    "trial_length": 10,
    "click_num": 2,
    "RT": 3825,
    "action": 1,
    "reward": 3.1
  },
  {
    "phase": "TASK",
    "condition": "Cond3",
    "trial_num": 7,
    "trial_length": 10,
    "click_num": 3,
    "RT": 1623,
    "action": 1,
    "reward": 4.1
  },
  {
    "phase": "TASK",
    "condition": "Cond3",
    "trial_num": 7,
    "trial_length": 10,
    "click_num": 4,
    "RT": 2350,
    "action": 0,
    "reward": 4.1
  },
  {
    "phase": "TASK",
    "condition": "Cond3",
    "trial_num": 7,
    "trial_length": 10,
    "click_num": 5,
    "RT": 1603,
    "action": 0,
    "reward": 4.1
  },
  {
    "phase": "TASK",
    "condition": "Cond3",
    "trial_num": 7,
    "trial_length": 10,
    "click_num": 6,
    "RT": 1103,
    "action": 0,
    "reward": 4.1
  },
  {
    "phase": "TASK",
    "condition": "Cond3",
    "trial_num": 7,
    "trial_length": 10,
    "click_num": 7,
    "RT": 987,
    "action": 0,
    "reward": 4.1
  },
  {
    "phase": "TASK",
    "condition": "Cond3",
    "trial_num": 7,
    "trial_length": 10,
    "click_num": 8,
    "RT": 1292,
    "action": 0,
    "reward": 4.1
  },
  {
    "phase": "TASK",
    "condition": "Cond3",
    "trial_num": 7,
    "trial_length": 10,
    "click_num": 9,
    "RT": 1201,
    "action": 0,
    "reward": 4.1
  },
  {
    "phase": "TASK",
    "condition": "Cond3",
    "trial_num": 7,
    "trial_length": 10,
    "click_num": 10,
    "RT": 1267,
    "action": 0,
    "reward": 4.1
  },
  {
    "phase": "TASK",
    "condition": "Cond3",
    "trial_num": 8,
    "trial_length": 9,
    "click_num": 1,
    "RT": 2981,
    "action": 1,
    "reward": 3.4
  },
  {
    "phase": "TASK",
    "condition": "Cond3",
    "trial_num": 8,
    "trial_length": 9,
    "click_num": 2,
    "RT": 1889,
    "action": 1,
    "reward": 4.6
  },
  {
    "phase": "TASK",
    "condition": "Cond3",
    "trial_num": 8,
    "trial_length": 9,
    "click_num": 3,
    "RT": 2231,
    "action": 0,
    "reward": 4.6
  },
  {
    "phase": "TASK",
    "condition": "Cond3",
    "trial_num": 8,
    "trial_length": 9,
    "click_num": 4,
    "RT": 1504,
    "action": 0,
    "reward": 4.6
  },
  {
    "phase": "TASK",
    "condition": "Cond3",
    "trial_num": 8,
    "trial_length": 9,
    "click_num": 5,
    "RT": 1179,
    "action": 0,
    "reward": 4.6
  },
  {
    "phase": "TASK",
    "condition": "Cond3",
    "trial_num": 8,
    "trial_length": 9,
    "click_num": 6,
    "RT": 1598,
    "action": 0,
    "reward": 4.6
  },
  {
    "phase": "TASK",
    "condition": "Cond3",
    "trial_num": 8,
    "trial_length": 9,
    "click_num": 7,
    "RT": 1048,
    "action": 0,
    "reward": 4.6
  },
  {
    "phase": "TASK",
    "condition": "Cond3",
    "trial_num": 8,
    "trial_length": 9,
    "click_num": 8,
    "RT": 1298,
    "action": 0,
    "reward": 4.6
  },
  {
    "phase": "TASK",
    "condition": "Cond3",
    "trial_num": 8,
    "trial_length": 9,
    "click_num": 9,
    "RT": 1373,
    "action": 0,
    "reward": 4.6
  },
  {
    "phase": "TASK",
    "condition": "Cond3",
    "trial_num": 9,
    "trial_length": 5,
    "click_num": 1,
    "RT": 2814,
    "action": 1,
    "reward": 2.8
  },
  {
    "phase": "TASK",
    "condition": "Cond3",
    "trial_num": 9,
    "trial_length": 5,
    "click_num": 2,
    "RT": 2561,
    "action": 1,
    "reward": 3.2
  },
  {
    "phase": "TASK",
    "condition": "Cond3",
    "trial_num": 9,
    "trial_length": 5,
    "click_num": 3,
    "RT": 1976,
    "action": 1,
    "reward": 3.3
  },
  {
    "phase": "TASK",
    "condition": "Cond3",
    "trial_num": 9,
    "trial_length": 5,
    "click_num": 4,
    "RT": 2632,
    "action": 0,
    "reward": 3.3
  },
  {
    "phase": "TASK",
    "condition": "Cond3",
    "trial_num": 9,
    "trial_length": 5,
    "click_num": 5,
    "RT": 1146,
    "action": 1,
    "reward": 3.5
  },
  {
    "phase": "TASK",
    "condition": "Cond3",
    "trial_num": 10,
    "trial_length": 9,
    "click_num": 1,
    "RT": 2784,
    "action": 1,
    "reward": 2
  },
  {
    "phase": "TASK",
    "condition": "Cond3",
    "trial_num": 10,
    "trial_length": 9,
    "click_num": 2,
    "RT": 2256,
    "action": 1,
    "reward": 3.4
  },
  {
    "phase": "TASK",
    "condition": "Cond3",
    "trial_num": 10,
    "trial_length": 9,
    "click_num": 3,
    "RT": 1615,
    "action": 1,
    "reward": 3.5
  },
  {
    "phase": "TASK",
    "condition": "Cond3",
    "trial_num": 10,
    "trial_length": 9,
    "click_num": 4,
    "RT": 1440,
    "action": 1,
    "reward": 3
  },
  {
    "phase": "TASK",
    "condition": "Cond3",
    "trial_num": 10,
    "trial_length": 9,
    "click_num": 5,
    "RT": 1192,
    "action": 1,
    "reward": 3.2
  },
  {
    "phase": "TASK",
    "condition": "Cond3",
    "trial_num": 10,
    "trial_length": 9,
    "click_num": 6,
    "RT": 1072,
    "action": 1,
    "reward": 4
  },
  {
    "phase": "TASK",
    "condition": "Cond3",
    "trial_num": 10,
    "trial_length": 9,
    "click_num": 7,
    "RT": 1897,
    "action": 0,
    "reward": 4
  },
  {
    "phase": "TASK",
    "condition": "Cond3",
    "trial_num": 10,
    "trial_length": 9,
    "click_num": 8,
    "RT": 1208,
    "action": 0,
    "reward": 4
  },
  {
    "phase": "TASK",
    "condition": "Cond3",
    "trial_num": 10,
    "trial_length": 9,
    "click_num": 9,
    "RT": 1120,
    "action": 0,
    "reward": 4
  },
  {
    "phase": "TASK",
    "condition": "Cond3",
    "trial_num": 11,
    "trial_length": 7,
    "click_num": 1,
    "RT": 1711,
    "action": 1,
    "reward": 4.2
  },
  {
    "phase": "TASK",
    "condition": "Cond3",
    "trial_num": 11,
    "trial_length": 7,
    "click_num": 2,
    "RT": 2244,
    "action": 0,
    "reward": 4.2
  },
  {
    "phase": "TASK",
    "condition": "Cond3",
    "trial_num": 11,
    "trial_length": 7,
    "click_num": 3,
    "RT": 1003,
    "action": 0,
    "reward": 4.2
  },
  {
    "phase": "TASK",
    "condition": "Cond3",
    "trial_num": 11,
    "trial_length": 7,
    "click_num": 4,
    "RT": 1114,
    "action": 0,
    "reward": 4.2
  },
  {
    "phase": "TASK",
    "condition": "Cond3",
    "trial_num": 11,
    "trial_length": 7,
    "click_num": 5,
    "RT": 894,
    "action": 0,
    "reward": 4.2
  },
  {
    "phase": "TASK",
    "condition": "Cond3",
    "trial_num": 11,
    "trial_length": 7,
    "click_num": 6,
    "RT": 913,
    "action": 0,
    "reward": 4.2
  },
  {
    "phase": "TASK",
    "condition": "Cond3",
    "trial_num": 11,
    "trial_length": 7,
    "click_num": 7,
    "RT": 1091,
    "action": 0,
    "reward": 4.2
  },
  {
    "phase": "TASK",
    "condition": "Cond3",
    "trial_num": 12,
    "trial_length": 9,
    "click_num": 1,
    "RT": 4190,
    "action": 1,
    "reward": 3.3
  },
  {
    "phase": "TASK",
    "condition": "Cond3",
    "trial_num": 12,
    "trial_length": 9,
    "click_num": 2,
    "RT": 3038,
    "action": 1,
    "reward": 3.8
  },
  {
    "phase": "TASK",
    "condition": "Cond3",
    "trial_num": 12,
    "trial_length": 9,
    "click_num": 3,
    "RT": 1969,
    "action": 1,
    "reward": 3.6
  },
  {
    "phase": "TASK",
    "condition": "Cond3",
    "trial_num": 12,
    "trial_length": 9,
    "click_num": 4,
    "RT": 1212,
    "action": 1,
    "reward": 2.8
  },
  {
    "phase": "TASK",
    "condition": "Cond3",
    "trial_num": 12,
    "trial_length": 9,
    "click_num": 5,
    "RT": 1949,
    "action": 1,
    "reward": 3
  },
  {
    "phase": "TASK",
    "condition": "Cond3",
    "trial_num": 12,
    "trial_length": 9,
    "click_num": 6,
    "RT": 1832,
    "action": 0,
    "reward": 3.8
  },
  {
    "phase": "TASK",
    "condition": "Cond3",
    "trial_num": 12,
    "trial_length": 9,
    "click_num": 7,
    "RT": 1320,
    "action": 1,
    "reward": 2.3
  },
  {
    "phase": "TASK",
    "condition": "Cond3",
    "trial_num": 12,
    "trial_length": 9,
    "click_num": 8,
    "RT": 1544,
    "action": 0,
    "reward": 3.8
  },
  {
    "phase": "TASK",
    "condition": "Cond3",
    "trial_num": 12,
    "trial_length": 9,
    "click_num": 9,
    "RT": 2880,
    "action": 1,
    "reward": 2.5
  },
  {
    "phase": "TASK",
    "condition": "Cond3",
    "trial_num": 13,
    "trial_length": 5,
    "click_num": 1,
    "RT": 1591,
    "action": 1,
    "reward": 3.3
  },
  {
    "phase": "TASK",
    "condition": "Cond3",
    "trial_num": 13,
    "trial_length": 5,
    "click_num": 2,
    "RT": 2814,
    "action": 1,
    "reward": 3.8
  },
  {
    "phase": "TASK",
    "condition": "Cond3",
    "trial_num": 13,
    "trial_length": 5,
    "click_num": 3,
    "RT": 1458,
    "action": 0,
    "reward": 3.8
  },
  {
    "phase": "TASK",
    "condition": "Cond3",
    "trial_num": 13,
    "trial_length": 5,
    "click_num": 4,
    "RT": 1039,
    "action": 0,
    "reward": 3.8
  },
  {
    "phase": "TASK",
    "condition": "Cond3",
    "trial_num": 13,
    "trial_length": 5,
    "click_num": 5,
    "RT": 1424,
    "action": 1,
    "reward": 1.9
  },
  {
    "phase": "TASK",
    "condition": "Cond3",
    "trial_num": 14,
    "trial_length": 9,
    "click_num": 1,
    "RT": 1576,
    "action": 1,
    "reward": 3.8
  },
  {
    "phase": "TASK",
    "condition": "Cond3",
    "trial_num": 14,
    "trial_length": 9,
    "click_num": 2,
    "RT": 2544,
    "action": 1,
    "reward": 1.9
  },
  {
    "phase": "TASK",
    "condition": "Cond3",
    "trial_num": 14,
    "trial_length": 9,
    "click_num": 3,
    "RT": 1617,
    "action": 1,
    "reward": 3.5
  },
  {
    "phase": "TASK",
    "condition": "Cond3",
    "trial_num": 14,
    "trial_length": 9,
    "click_num": 4,
    "RT": 1438,
    "action": 1,
    "reward": 2.6
  },
  {
    "phase": "TASK",
    "condition": "Cond3",
    "trial_num": 14,
    "trial_length": 9,
    "click_num": 5,
    "RT": 1649,
    "action": 0,
    "reward": 3.8
  },
  {
    "phase": "TASK",
    "condition": "Cond3",
    "trial_num": 14,
    "trial_length": 9,
    "click_num": 6,
    "RT": 967,
    "action": 0,
    "reward": 3.8
  },
  {
    "phase": "TASK",
    "condition": "Cond3",
    "trial_num": 14,
    "trial_length": 9,
    "click_num": 7,
    "RT": 897,
    "action": 0,
    "reward": 3.8
  },
  {
    "phase": "TASK",
    "condition": "Cond3",
    "trial_num": 14,
    "trial_length": 9,
    "click_num": 8,
    "RT": 1040,
    "action": 1,
    "reward": 2.9
  },
  {
    "phase": "TASK",
    "condition": "Cond3",
    "trial_num": 14,
    "trial_length": 9,
    "click_num": 9,
    "RT": 1695,
    "action": 0,
    "reward": 3.8
  },
  {
    "phase": "TASK",
    "condition": "Cond3",
    "trial_num": 15,
    "trial_length": 5,
    "click_num": 1,
    "RT": 3446,
    "action": 1,
    "reward": 2.7
  },
  {
    "phase": "TASK",
    "condition": "Cond3",
    "trial_num": 15,
    "trial_length": 5,
    "click_num": 2,
    "RT": 4361,
    "action": 1,
    "reward": 3.7
  },
  {
    "phase": "TASK",
    "condition": "Cond3",
    "trial_num": 15,
    "trial_length": 5,
    "click_num": 3,
    "RT": 2487,
    "action": 1,
    "reward": 3.5
  },
  {
    "phase": "TASK",
    "condition": "Cond3",
    "trial_num": 15,
    "trial_length": 5,
    "click_num": 4,
    "RT": 2056,
    "action": 1,
    "reward": 3.8
  },
  {
    "phase": "TASK",
    "condition": "Cond3",
    "trial_num": 15,
    "trial_length": 5,
    "click_num": 5,
    "RT": 2056,
    "action": 0,
    "reward": 3.8
  },
  {
    "phase": "TASK",
    "condition": "Cond3",
    "trial_num": 16,
    "trial_length": 10,
    "click_num": 1,
    "RT": 2013,
    "action": 1,
    "reward": 2.8
  },
  {
    "phase": "TASK",
    "condition": "Cond3",
    "trial_num": 16,
    "trial_length": 10,
    "click_num": 2,
    "RT": 1553,
    "action": 1,
    "reward": 2
  },
  {
    "phase": "TASK",
    "condition": "Cond3",
    "trial_num": 16,
    "trial_length": 10,
    "click_num": 3,
    "RT": 1352,
    "action": 1,
    "reward": 2.8
  },
  {
    "phase": "TASK",
    "condition": "Cond3",
    "trial_num": 16,
    "trial_length": 10,
    "click_num": 4,
    "RT": 1695,
    "action": 1,
    "reward": 3.5
  },
  {
    "phase": "TASK",
    "condition": "Cond3",
    "trial_num": 16,
    "trial_length": 10,
    "click_num": 5,
    "RT": 1312,
    "action": 1,
    "reward": 2.3
  },
  {
    "phase": "TASK",
    "condition": "Cond3",
    "trial_num": 16,
    "trial_length": 10,
    "click_num": 6,
    "RT": 1664,
    "action": 0,
    "reward": 3.5
  },
  {
    "phase": "TASK",
    "condition": "Cond3",
    "trial_num": 16,
    "trial_length": 10,
    "click_num": 7,
    "RT": 2153,
    "action": 0,
    "reward": 3.5
  },
  {
    "phase": "TASK",
    "condition": "Cond3",
    "trial_num": 16,
    "trial_length": 10,
    "click_num": 8,
    "RT": 1087,
    "action": 0,
    "reward": 3.5
  },
  {
    "phase": "TASK",
    "condition": "Cond3",
    "trial_num": 16,
    "trial_length": 10,
    "click_num": 9,
    "RT": 1192,
    "action": 0,
    "reward": 3.5
  },
  {
    "phase": "TASK",
    "condition": "Cond3",
    "trial_num": 16,
    "trial_length": 10,
    "click_num": 10,
    "RT": 1284,
    "action": 1,
    "reward": 4.4
  },
  {
    "phase": "TASK",
    "condition": "Cond3",
    "trial_num": 17,
    "trial_length": 10,
    "click_num": 1,
    "RT": 2185,
    "action": 1,
    "reward": 3
  },
  {
    "phase": "TASK",
    "condition": "Cond3",
    "trial_num": 17,
    "trial_length": 10,
    "click_num": 2,
    "RT": 2148,
    "action": 1,
    "reward": 3.1
  },
  {
    "phase": "TASK",
    "condition": "Cond3",
    "trial_num": 17,
    "trial_length": 10,
    "click_num": 3,
    "RT": 1371,
    "action": 1,
    "reward": 3
  },
  {
    "phase": "TASK",
    "condition": "Cond3",
    "trial_num": 17,
    "trial_length": 10,
    "click_num": 4,
    "RT": 1109,
    "action": 1,
    "reward": 2.2
  },
  {
    "phase": "TASK",
    "condition": "Cond3",
    "trial_num": 17,
    "trial_length": 10,
    "click_num": 5,
    "RT": 1145,
    "action": 1,
    "reward": 3.9
  },
  {
    "phase": "TASK",
    "condition": "Cond3",
    "trial_num": 17,
    "trial_length": 10,
    "click_num": 6,
    "RT": 1800,
    "action": 0,
    "reward": 3.9
  },
  {
    "phase": "TASK",
    "condition": "Cond3",
    "trial_num": 17,
    "trial_length": 10,
    "click_num": 7,
    "RT": 1671,
    "action": 0,
    "reward": 3.9
  },
  {
    "phase": "TASK",
    "condition": "Cond3",
    "trial_num": 17,
    "trial_length": 10,
    "click_num": 8,
    "RT": 945,
    "action": 0,
    "reward": 3.9
  },
  {
    "phase": "TASK",
    "condition": "Cond3",
    "trial_num": 17,
    "trial_length": 10,
    "click_num": 9,
    "RT": 1376,
    "action": 0,
    "reward": 3.9
  },
  {
    "phase": "TASK",
    "condition": "Cond3",
    "trial_num": 17,
    "trial_length": 10,
    "click_num": 10,
    "RT": 1210,
    "action": 0,
    "reward": 3.9
  },
  {
    "phase": "TASK",
    "condition": "Cond3",
    "trial_num": 18,
    "trial_length": 8,
    "click_num": 1,
    "RT": 1268,
    "action": 1,
    "reward": 2.2
  },
  {
    "phase": "TASK",
    "condition": "Cond3",
    "trial_num": 18,
    "trial_length": 8,
    "click_num": 2,
    "RT": 1560,
    "action": 1,
    "reward": 3.3
  },
  {
    "phase": "TASK",
    "condition": "Cond3",
    "trial_num": 18,
    "trial_length": 8,
    "click_num": 3,
    "RT": 1664,
    "action": 1,
    "reward": 2.1
  },
  {
    "phase": "TASK",
    "condition": "Cond3",
    "trial_num": 18,
    "trial_length": 8,
    "click_num": 4,
    "RT": 1233,
    "action": 1,
    "reward": 3.7
  },
  {
    "phase": "TASK",
    "condition": "Cond3",
    "trial_num": 18,
    "trial_length": 8,
    "click_num": 5,
    "RT": 1671,
    "action": 1,
    "reward": 2.7
  },
  {
    "phase": "TASK",
    "condition": "Cond3",
    "trial_num": 18,
    "trial_length": 8,
    "click_num": 6,
    "RT": 1571,
    "action": 1,
    "reward": 3.6
  },
  {
    "phase": "TASK",
    "condition": "Cond3",
    "trial_num": 18,
    "trial_length": 8,
    "click_num": 7,
    "RT": 2014,
    "action": 0,
    "reward": 3.7
  },
  {
    "phase": "TASK",
    "condition": "Cond3",
    "trial_num": 18,
    "trial_length": 8,
    "click_num": 8,
    "RT": 1575,
    "action": 1,
    "reward": 3.2
  },
  {
    "phase": "TASK",
    "condition": "Cond3",
    "trial_num": 19,
    "trial_length": 7,
    "click_num": 1,
    "RT": 1441,
    "action": 1,
    "reward": 2.2
  },
  {
    "phase": "TASK",
    "condition": "Cond3",
    "trial_num": 19,
    "trial_length": 7,
    "click_num": 2,
    "RT": 1733,
    "action": 1,
    "reward": 3.2
  },
  {
    "phase": "TASK",
    "condition": "Cond3",
    "trial_num": 19,
    "trial_length": 7,
    "click_num": 3,
    "RT": 1243,
    "action": 1,
    "reward": 3
  },
  {
    "phase": "TASK",
    "condition": "Cond3",
    "trial_num": 19,
    "trial_length": 7,
    "click_num": 4,
    "RT": 1453,
    "action": 1,
    "reward": 2.6
  },
  {
    "phase": "TASK",
    "condition": "Cond3",
    "trial_num": 19,
    "trial_length": 7,
    "click_num": 5,
    "RT": 1744,
    "action": 1,
    "reward": 2.5
  },
  {
    "phase": "TASK",
    "condition": "Cond3",
    "trial_num": 19,
    "trial_length": 7,
    "click_num": 6,
    "RT": 2617,
    "action": 0,
    "reward": 3.2
  },
  {
    "phase": "TASK",
    "condition": "Cond3",
    "trial_num": 19,
    "trial_length": 7,
    "click_num": 7,
    "RT": 1174,
    "action": 1,
    "reward": 2
  },
  {
    "phase": "TASK",
    "condition": "Cond3",
    "trial_num": 20,
    "trial_length": 8,
    "click_num": 1,
    "RT": 4344,
    "action": 1,
    "reward": 2.4
  },
  {
    "phase": "TASK",
    "condition": "Cond3",
    "trial_num": 20,
    "trial_length": 8,
    "click_num": 2,
    "RT": 4951,
    "action": 1,
    "reward": 2.4
  },
  {
    "phase": "TASK",
    "condition": "Cond3",
    "trial_num": 20,
    "trial_length": 8,
    "click_num": 3,
    "RT": 1874,
    "action": 1,
    "reward": 1.8
  },
  {
    "phase": "TASK",
    "condition": "Cond3",
    "trial_num": 20,
    "trial_length": 8,
    "click_num": 4,
    "RT": 1325,
    "action": 1,
    "reward": 3.9
  },
  {
    "phase": "TASK",
    "condition": "Cond3",
    "trial_num": 20,
    "trial_length": 8,
    "click_num": 5,
    "RT": 1880,
    "action": 0,
    "reward": 3.9
  },
  {
    "phase": "TASK",
    "condition": "Cond3",
    "trial_num": 20,
    "trial_length": 8,
    "click_num": 6,
    "RT": 1018,
    "action": 0,
    "reward": 3.9
  },
  {
    "phase": "TASK",
    "condition": "Cond3",
    "trial_num": 20,
    "trial_length": 8,
    "click_num": 7,
    "RT": 1071,
    "action": 0,
    "reward": 3.9
  },
  {
    "phase": "TASK",
    "condition": "Cond3",
    "trial_num": 20,
    "trial_length": 8,
    "click_num": 8,
    "RT": 1016,
    "action": 0,
    "reward": 3.9
  },
  {
    "phase": "TASK",
    "condition": "Cond3",
    "trial_num": 21,
    "trial_length": 7,
    "click_num": 1,
    "RT": 1718,
    "action": 1,
    "reward": 3.4
  },
  {
    "phase": "TASK",
    "condition": "Cond3",
    "trial_num": 21,
    "trial_length": 7,
    "click_num": 2,
    "RT": 1503,
    "action": 1,
    "reward": 4.1
  },
  {
    "phase": "TASK",
    "condition": "Cond3",
    "trial_num": 21,
    "trial_length": 7,
    "click_num": 3,
    "RT": 1769,
    "action": 0,
    "reward": 4.1
  },
  {
    "phase": "TASK",
    "condition": "Cond3",
    "trial_num": 21,
    "trial_length": 7,
    "click_num": 4,
    "RT": 951,
    "action": 0,
    "reward": 4.1
  },
  {
    "phase": "TASK",
    "condition": "Cond3",
    "trial_num": 21,
    "trial_length": 7,
    "click_num": 5,
    "RT": 889,
    "action": 0,
    "reward": 4.1
  },
  {
    "phase": "TASK",
    "condition": "Cond3",
    "trial_num": 21,
    "trial_length": 7,
    "click_num": 6,
    "RT": 895,
    "action": 0,
    "reward": 4.1
  },
  {
    "phase": "TASK",
    "condition": "Cond3",
    "trial_num": 21,
    "trial_length": 7,
    "click_num": 7,
    "RT": 1256,
    "action": 0,
    "reward": 4.1
  },
  {
    "phase": "TASK",
    "condition": "Cond3",
    "trial_num": 22,
    "trial_length": 9,
    "click_num": 1,
    "RT": 1368,
    "action": 1,
    "reward": 3
  },
  {
    "phase": "TASK",
    "condition": "Cond3",
    "trial_num": 22,
    "trial_length": 9,
    "click_num": 2,
    "RT": 2991,
    "action": 1,
    "reward": 3.3
  },
  {
    "phase": "TASK",
    "condition": "Cond3",
    "trial_num": 22,
    "trial_length": 9,
    "click_num": 3,
    "RT": 1416,
    "action": 1,
    "reward": 2.5
  },
  {
    "phase": "TASK",
    "condition": "Cond3",
    "trial_num": 22,
    "trial_length": 9,
    "click_num": 4,
    "RT": 1265,
    "action": 1,
    "reward": 2.5
  },
  {
    "phase": "TASK",
    "condition": "Cond3",
    "trial_num": 22,
    "trial_length": 9,
    "click_num": 5,
    "RT": 1246,
    "action": 1,
    "reward": 4.3
  },
  {
    "phase": "TASK",
    "condition": "Cond3",
    "trial_num": 22,
    "trial_length": 9,
    "click_num": 6,
    "RT": 1490,
    "action": 0,
    "reward": 4.3
  },
  {
    "phase": "TASK",
    "condition": "Cond3",
    "trial_num": 22,
    "trial_length": 9,
    "click_num": 7,
    "RT": 863,
    "action": 0,
    "reward": 4.3
  },
  {
    "phase": "TASK",
    "condition": "Cond3",
    "trial_num": 22,
    "trial_length": 9,
    "click_num": 8,
    "RT": 1600,
    "action": 0,
    "reward": 4.3
  },
  {
    "phase": "TASK",
    "condition": "Cond3",
    "trial_num": 22,
    "trial_length": 9,
    "click_num": 9,
    "RT": 1512,
    "action": 0,
    "reward": 4.3
  },
  {
    "phase": "TASK",
    "condition": "Cond3",
    "trial_num": 23,
    "trial_length": 7,
    "click_num": 1,
    "RT": 1698,
    "action": 1,
    "reward": 3.1
  },
  {
    "phase": "TASK",
    "condition": "Cond3",
    "trial_num": 23,
    "trial_length": 7,
    "click_num": 2,
    "RT": 1990,
    "action": 1,
    "reward": 3.3
  },
  {
    "phase": "TASK",
    "condition": "Cond3",
    "trial_num": 23,
    "trial_length": 7,
    "click_num": 3,
    "RT": 1425,
    "action": 1,
    "reward": 2.1
  },
  {
    "phase": "TASK",
    "condition": "Cond3",
    "trial_num": 23,
    "trial_length": 7,
    "click_num": 4,
    "RT": 2863,
    "action": 1,
    "reward": 3.2
  },
  {
    "phase": "TASK",
    "condition": "Cond3",
    "trial_num": 23,
    "trial_length": 7,
    "click_num": 5,
    "RT": 1730,
    "action": 1,
    "reward": 2.4
  },
  {
    "phase": "TASK",
    "condition": "Cond3",
    "trial_num": 23,
    "trial_length": 7,
    "click_num": 6,
    "RT": 1702,
    "action": 1,
    "reward": 2.4
  },
  {
    "phase": "TASK",
    "condition": "Cond3",
    "trial_num": 23,
    "trial_length": 7,
    "click_num": 7,
    "RT": 1417,
    "action": 0,
    "reward": 3.3
  },
  {
    "phase": "TASK",
    "condition": "Cond3",
    "trial_num": 24,
    "trial_length": 10,
    "click_num": 1,
    "RT": 1512,
    "action": 1,
    "reward": 2.9
  },
  {
    "phase": "TASK",
    "condition": "Cond3",
    "trial_num": 24,
    "trial_length": 10,
    "click_num": 2,
    "RT": 1888,
    "action": 1,
    "reward": 3.6
  },
  {
    "phase": "TASK",
    "condition": "Cond3",
    "trial_num": 24,
    "trial_length": 10,
    "click_num": 3,
    "RT": 2478,
    "action": 1,
    "reward": 2.2
  },
  {
    "phase": "TASK",
    "condition": "Cond3",
    "trial_num": 24,
    "trial_length": 10,
    "click_num": 4,
    "RT": 1370,
    "action": 1,
    "reward": 2.8
  },
  {
    "phase": "TASK",
    "condition": "Cond3",
    "trial_num": 24,
    "trial_length": 10,
    "click_num": 5,
    "RT": 1510,
    "action": 1,
    "reward": 2.8
  },
  {
    "phase": "TASK",
    "condition": "Cond3",
    "trial_num": 24,
    "trial_length": 10,
    "click_num": 6,
    "RT": 1287,
    "action": 0,
    "reward": 3.6
  },
  {
    "phase": "TASK",
    "condition": "Cond3",
    "trial_num": 24,
    "trial_length": 10,
    "click_num": 7,
    "RT": 1291,
    "action": 1,
    "reward": 3.2
  },
  {
    "phase": "TASK",
    "condition": "Cond3",
    "trial_num": 24,
    "trial_length": 10,
    "click_num": 8,
    "RT": 1205,
    "action": 0,
    "reward": 3.6
  },
  {
    "phase": "TASK",
    "condition": "Cond3",
    "trial_num": 24,
    "trial_length": 10,
    "click_num": 9,
    "RT": 2552,
    "action": 1,
    "reward": 3.3
  },
  {
    "phase": "TASK",
    "condition": "Cond3",
    "trial_num": 24,
    "trial_length": 10,
    "click_num": 10,
    "RT": 1249,
    "action": 0,
    "reward": 3.6
  },
  {
    "phase": "TASK",
    "condition": "Cond3",
    "trial_num": 25,
    "trial_length": 10,
    "click_num": 1,
    "RT": 1574,
    "action": 1,
    "reward": 2.7
  },
  {
    "phase": "TASK",
    "condition": "Cond3",
    "trial_num": 25,
    "trial_length": 10,
    "click_num": 2,
    "RT": 1968,
    "action": 1,
    "reward": 2.8
  },
  {
    "phase": "TASK",
    "condition": "Cond3",
    "trial_num": 25,
    "trial_length": 10,
    "click_num": 3,
    "RT": 1393,
    "action": 1,
    "reward": 2.5
  },
  {
    "phase": "TASK",
    "condition": "Cond3",
    "trial_num": 25,
    "trial_length": 10,
    "click_num": 4,
    "RT": 1458,
    "action": 1,
    "reward": 2.1
  },
  {
    "phase": "TASK",
    "condition": "Cond3",
    "trial_num": 25,
    "trial_length": 10,
    "click_num": 5,
    "RT": 1430,
    "action": 1,
    "reward": 2.4
  },
  {
    "phase": "TASK",
    "condition": "Cond3",
    "trial_num": 25,
    "trial_length": 10,
    "click_num": 6,
    "RT": 1791,
    "action": 1,
    "reward": 3.4
  },
  {
    "phase": "TASK",
    "condition": "Cond3",
    "trial_num": 25,
    "trial_length": 10,
    "click_num": 7,
    "RT": 1259,
    "action": 0,
    "reward": 3.4
  },
  {
    "phase": "TASK",
    "condition": "Cond3",
    "trial_num": 25,
    "trial_length": 10,
    "click_num": 8,
    "RT": 1806,
    "action": 1,
    "reward": 2.9
  },
  {
    "phase": "TASK",
    "condition": "Cond3",
    "trial_num": 25,
    "trial_length": 10,
    "click_num": 9,
    "RT": 1504,
    "action": 0,
    "reward": 3.4
  },
  {
    "phase": "TASK",
    "condition": "Cond3",
    "trial_num": 25,
    "trial_length": 10,
    "click_num": 10,
    "RT": 1178,
    "action": 0,
    "reward": 3.4
  },
  {
    "phase": "TASK",
    "condition": "Cond3",
    "trial_num": 26,
    "trial_length": 9,
    "click_num": 1,
    "RT": 1543,
    "action": 1,
    "reward": 2.1
  },
  {
    "phase": "TASK",
    "condition": "Cond3",
    "trial_num": 26,
    "trial_length": 9,
    "click_num": 2,
    "RT": 2185,
    "action": 1,
    "reward": 3.5
  },
  {
    "phase": "TASK",
    "condition": "Cond3",
    "trial_num": 26,
    "trial_length": 9,
    "click_num": 3,
    "RT": 1679,
    "action": 0,
    "reward": 3.5
  },
  {
    "phase": "TASK",
    "condition": "Cond3",
    "trial_num": 26,
    "trial_length": 9,
    "click_num": 4,
    "RT": 920,
    "action": 0,
    "reward": 3.5
  },
  {
    "phase": "TASK",
    "condition": "Cond3",
    "trial_num": 26,
    "trial_length": 9,
    "click_num": 5,
    "RT": 874,
    "action": 0,
    "reward": 3.5
  },
  {
    "phase": "TASK",
    "condition": "Cond3",
    "trial_num": 26,
    "trial_length": 9,
    "click_num": 6,
    "RT": 829,
    "action": 0,
    "reward": 3.5
  },
  {
    "phase": "TASK",
    "condition": "Cond3",
    "trial_num": 26,
    "trial_length": 9,
    "click_num": 7,
    "RT": 1088,
    "action": 0,
    "reward": 3.5
  },
  {
    "phase": "TASK",
    "condition": "Cond3",
    "trial_num": 26,
    "trial_length": 9,
    "click_num": 8,
    "RT": 841,
    "action": 0,
    "reward": 3.5
  },
  {
    "phase": "TASK",
    "condition": "Cond3",
    "trial_num": 26,
    "trial_length": 9,
    "click_num": 9,
    "RT": 1912,
    "action": 0,
    "reward": 3.5
  },
  {
    "phase": "TASK",
    "condition": "Cond3",
    "trial_num": 27,
    "trial_length": 9,
    "click_num": 1,
    "RT": 1484,
    "action": 1,
    "reward": 2.1
  },
  {
    "phase": "TASK",
    "condition": "Cond3",
    "trial_num": 27,
    "trial_length": 9,
    "click_num": 2,
    "RT": 1584,
    "action": 1,
    "reward": 3
  },
  {
    "phase": "TASK",
    "condition": "Cond3",
    "trial_num": 27,
    "trial_length": 9,
    "click_num": 3,
    "RT": 1328,
    "action": 1,
    "reward": 2.8
  },
  {
    "phase": "TASK",
    "condition": "Cond3",
    "trial_num": 27,
    "trial_length": 9,
    "click_num": 4,
    "RT": 1321,
    "action": 1,
    "reward": 2
  },
  {
    "phase": "TASK",
    "condition": "Cond3",
    "trial_num": 27,
    "trial_length": 9,
    "click_num": 5,
    "RT": 1311,
    "action": 1,
    "reward": 2.8
  },
  {
    "phase": "TASK",
    "condition": "Cond3",
    "trial_num": 27,
    "trial_length": 9,
    "click_num": 6,
    "RT": 1392,
    "action": 1,
    "reward": 2.4
  },
  {
    "phase": "TASK",
    "condition": "Cond3",
    "trial_num": 27,
    "trial_length": 9,
    "click_num": 7,
    "RT": 1455,
    "action": 1,
    "reward": 3.5
  },
  {
    "phase": "TASK",
    "condition": "Cond3",
    "trial_num": 27,
    "trial_length": 9,
    "click_num": 8,
    "RT": 1769,
    "action": 0,
    "reward": 3.5
  },
  {
    "phase": "TASK",
    "condition": "Cond3",
    "trial_num": 27,
    "trial_length": 9,
    "click_num": 9,
    "RT": 864,
    "action": 0,
    "reward": 3.5
  },
  {
    "phase": "TASK",
    "condition": "Cond3",
    "trial_num": 28,
    "trial_length": 7,
    "click_num": 1,
    "RT": 1935,
    "action": 1,
    "reward": 2
  },
  {
    "phase": "TASK",
    "condition": "Cond3",
    "trial_num": 28,
    "trial_length": 7,
    "click_num": 2,
    "RT": 1539,
    "action": 1,
    "reward": 3.4
  },
  {
    "phase": "TASK",
    "condition": "Cond3",
    "trial_num": 28,
    "trial_length": 7,
    "click_num": 3,
    "RT": 1341,
    "action": 1,
    "reward": 2.5
  },
  {
    "phase": "TASK",
    "condition": "Cond3",
    "trial_num": 28,
    "trial_length": 7,
    "click_num": 4,
    "RT": 1304,
    "action": 1,
    "reward": 3.8
  },
  {
    "phase": "TASK",
    "condition": "Cond3",
    "trial_num": 28,
    "trial_length": 7,
    "click_num": 5,
    "RT": 1751,
    "action": 0,
    "reward": 3.8
  },
  {
    "phase": "TASK",
    "condition": "Cond3",
    "trial_num": 28,
    "trial_length": 7,
    "click_num": 6,
    "RT": 1114,
    "action": 0,
    "reward": 3.8
  },
  {
    "phase": "TASK",
    "condition": "Cond3",
    "trial_num": 28,
    "trial_length": 7,
    "click_num": 7,
    "RT": 1048,
    "action": 0,
    "reward": 3.8
  },
  {
    "phase": "TASK",
    "condition": "Cond3",
    "trial_num": 29,
    "trial_length": 10,
    "click_num": 1,
    "RT": 1699,
    "action": 1,
    "reward": 3.2
  },
  {
    "phase": "TASK",
    "condition": "Cond3",
    "trial_num": 29,
    "trial_length": 10,
    "click_num": 2,
    "RT": 1440,
    "action": 1,
    "reward": 2.4
  },
  {
    "phase": "TASK",
    "condition": "Cond3",
    "trial_num": 29,
    "trial_length": 10,
    "click_num": 3,
    "RT": 1568,
    "action": 1,
    "reward": 2.8
  },
  {
    "phase": "TASK",
    "condition": "Cond3",
    "trial_num": 29,
    "trial_length": 10,
    "click_num": 4,
    "RT": 1435,
    "action": 1,
    "reward": 2.8
  },
  {
    "phase": "TASK",
    "condition": "Cond3",
    "trial_num": 29,
    "trial_length": 10,
    "click_num": 5,
    "RT": 1148,
    "action": 1,
    "reward": 2.4
  },
  {
    "phase": "TASK",
    "condition": "Cond3",
    "trial_num": 29,
    "trial_length": 10,
    "click_num": 6,
    "RT": 1336,
    "action": 1,
    "reward": 2.5
  },
  {
    "phase": "TASK",
    "condition": "Cond3",
    "trial_num": 29,
    "trial_length": 10,
    "click_num": 7,
    "RT": 1249,
    "action": 0,
    "reward": 3.2
  },
  {
    "phase": "TASK",
    "condition": "Cond3",
    "trial_num": 29,
    "trial_length": 10,
    "click_num": 8,
    "RT": 2024,
    "action": 1,
    "reward": 2.1
  },
  {
    "phase": "TASK",
    "condition": "Cond3",
    "trial_num": 29,
    "trial_length": 10,
    "click_num": 9,
    "RT": 1455,
    "action": 1,
    "reward": 3
  },
  {
    "phase": "TASK",
    "condition": "Cond3",
    "trial_num": 29,
    "trial_length": 10,
    "click_num": 10,
    "RT": 1609,
    "action": 0,
    "reward": 3.2
  },
  {
    "phase": "TASK",
    "condition": "Cond3",
    "trial_num": 30,
    "trial_length": 6,
    "click_num": 1,
    "RT": 1376,
    "action": 1,
    "reward": 3
  },
  {
    "phase": "TASK",
    "condition": "Cond3",
    "trial_num": 30,
    "trial_length": 6,
    "click_num": 2,
    "RT": 2143,
    "action": 1,
    "reward": 3.1
  },
  {
    "phase": "TASK",
    "condition": "Cond3",
    "trial_num": 30,
    "trial_length": 6,
    "click_num": 3,
    "RT": 1455,
    "action": 1,
    "reward": 2.6
  },
  {
    "phase": "TASK",
    "condition": "Cond3",
    "trial_num": 30,
    "trial_length": 6,
    "click_num": 4,
    "RT": 1723,
    "action": 1,
    "reward": 2.9
  },
  {
    "phase": "TASK",
    "condition": "Cond3",
    "trial_num": 30,
    "trial_length": 6,
    "click_num": 5,
    "RT": 1549,
    "action": 1,
    "reward": 3.5
  },
  {
    "phase": "TASK",
    "condition": "Cond3",
    "trial_num": 30,
    "trial_length": 6,
    "click_num": 6,
    "RT": 1912,
    "action": 0,
    "reward": 3.5
  },
  {
    "phase": "TASK",
    "condition": "Cond3",
    "trial_num": 31,
    "trial_length": 8,
    "click_num": 1,
    "RT": 1590,
    "action": 1,
    "reward": 2.3
  },
  {
    "phase": "TASK",
    "condition": "Cond3",
    "trial_num": 31,
    "trial_length": 8,
    "click_num": 2,
    "RT": 2097,
    "action": 1,
    "reward": 2.8
  },
  {
    "phase": "TASK",
    "condition": "Cond3",
    "trial_num": 31,
    "trial_length": 8,
    "click_num": 3,
    "RT": 1950,
    "action": 1,
    "reward": 2.3
  },
  {
    "phase": "TASK",
    "condition": "Cond3",
    "trial_num": 31,
    "trial_length": 8,
    "click_num": 4,
    "RT": 1939,
    "action": 1,
    "reward": 3
  },
  {
    "phase": "TASK",
    "condition": "Cond3",
    "trial_num": 31,
    "trial_length": 8,
    "click_num": 5,
    "RT": 1789,
    "action": 1,
    "reward": 2
  },
  {
    "phase": "TASK",
    "condition": "Cond3",
    "trial_num": 31,
    "trial_length": 8,
    "click_num": 6,
    "RT": 2001,
    "action": 0,
    "reward": 3
  },
  {
    "phase": "TASK",
    "condition": "Cond3",
    "trial_num": 31,
    "trial_length": 8,
    "click_num": 7,
    "RT": 1418,
    "action": 1,
    "reward": 2.8
  },
  {
    "phase": "TASK",
    "condition": "Cond3",
    "trial_num": 31,
    "trial_length": 8,
    "click_num": 8,
    "RT": 2062,
    "action": 1,
    "reward": 2.6
  },
  {
    "phase": "TASK",
    "condition": "Cond3",
    "trial_num": 32,
    "trial_length": 8,
    "click_num": 1,
    "RT": 1571,
    "action": 1,
    "reward": 3.4
  },
  {
    "phase": "TASK",
    "condition": "Cond3",
    "trial_num": 32,
    "trial_length": 8,
    "click_num": 2,
    "RT": 3031,
    "action": 1,
    "reward": 2.5
  },
  {
    "phase": "TASK",
    "condition": "Cond3",
    "trial_num": 32,
    "trial_length": 8,
    "click_num": 3,
    "RT": 1345,
    "action": 0,
    "reward": 3.4
  },
  {
    "phase": "TASK",
    "condition": "Cond3",
    "trial_num": 32,
    "trial_length": 8,
    "click_num": 4,
    "RT": 947,
    "action": 0,
    "reward": 3.4
  },
  {
    "phase": "TASK",
    "condition": "Cond3",
    "trial_num": 32,
    "trial_length": 8,
    "click_num": 5,
    "RT": 925,
    "action": 0,
    "reward": 3.4
  },
  {
    "phase": "TASK",
    "condition": "Cond3",
    "trial_num": 32,
    "trial_length": 8,
    "click_num": 6,
    "RT": 912,
    "action": 0,
    "reward": 3.4
  },
  {
    "phase": "TASK",
    "condition": "Cond3",
    "trial_num": 32,
    "trial_length": 8,
    "click_num": 7,
    "RT": 847,
    "action": 0,
    "reward": 3.4
  },
  {
    "phase": "TASK",
    "condition": "Cond3",
    "trial_num": 32,
    "trial_length": 8,
    "click_num": 8,
    "RT": 1315,
    "action": 1,
    "reward": 1.8
  },
  {
    "phase": "TASK",
    "condition": "Cond3",
    "trial_num": 33,
    "trial_length": 7,
    "click_num": 1,
    "RT": 1642,
    "action": 1,
    "reward": 3.8
  },
  {
    "phase": "TASK",
    "condition": "Cond3",
    "trial_num": 33,
    "trial_length": 7,
    "click_num": 2,
    "RT": 1760,
    "action": 0,
    "reward": 3.8
  },
  {
    "phase": "TASK",
    "condition": "Cond3",
    "trial_num": 33,
    "trial_length": 7,
    "click_num": 3,
    "RT": 817,
    "action": 0,
    "reward": 3.8
  },
  {
    "phase": "TASK",
    "condition": "Cond3",
    "trial_num": 33,
    "trial_length": 7,
    "click_num": 4,
    "RT": 1183,
    "action": 0,
    "reward": 3.8
  },
  {
    "phase": "TASK",
    "condition": "Cond3",
    "trial_num": 33,
    "trial_length": 7,
    "click_num": 5,
    "RT": 1871,
    "action": 0,
    "reward": 3.8
  },
  {
    "phase": "TASK",
    "condition": "Cond3",
    "trial_num": 33,
    "trial_length": 7,
    "click_num": 6,
    "RT": 1476,
    "action": 0,
    "reward": 3.8
  },
  {
    "phase": "TASK",
    "condition": "Cond3",
    "trial_num": 33,
    "trial_length": 7,
    "click_num": 7,
    "RT": 1791,
    "action": 0,
    "reward": 3.8
  },
  {
    "phase": "TASK",
    "condition": "Cond3",
    "trial_num": 34,
    "trial_length": 5,
    "click_num": 1,
    "RT": 2024,
    "action": 1,
    "reward": 2.9
  },
  {
    "phase": "TASK",
    "condition": "Cond3",
    "trial_num": 34,
    "trial_length": 5,
    "click_num": 2,
    "RT": 1925,
    "action": 1,
    "reward": 3.5
  },
  {
    "phase": "TASK",
    "condition": "Cond3",
    "trial_num": 34,
    "trial_length": 5,
    "click_num": 3,
    "RT": 1816,
    "action": 0,
    "reward": 3.5
  },
  {
    "phase": "TASK",
    "condition": "Cond3",
    "trial_num": 34,
    "trial_length": 5,
    "click_num": 4,
    "RT": 937,
    "action": 0,
    "reward": 3.5
  },
  {
    "phase": "TASK",
    "condition": "Cond3",
    "trial_num": 34,
    "trial_length": 5,
    "click_num": 5,
    "RT": 976,
    "action": 0,
    "reward": 3.5
  },
  {
    "phase": "TASK",
    "condition": "Cond3",
    "trial_num": 35,
    "trial_length": 5,
    "click_num": 1,
    "RT": 1205,
    "action": 1,
    "reward": 3
  },
  {
    "phase": "TASK",
    "condition": "Cond3",
    "trial_num": 35,
    "trial_length": 5,
    "click_num": 2,
    "RT": 1953,
    "action": 1,
    "reward": 2.1
  },
  {
    "phase": "TASK",
    "condition": "Cond3",
    "trial_num": 35,
    "trial_length": 5,
    "click_num": 3,
    "RT": 1391,
    "action": 1,
    "reward": 2.3
  },
  {
    "phase": "TASK",
    "condition": "Cond3",
    "trial_num": 35,
    "trial_length": 5,
    "click_num": 4,
    "RT": 1240,
    "action": 1,
    "reward": 3.4
  },
  {
    "phase": "TASK",
    "condition": "Cond3",
    "trial_num": 35,
    "trial_length": 5,
    "click_num": 5,
    "RT": 1776,
    "action": 0,
    "reward": 3.4
  },
  {
    "phase": "TASK",
    "condition": "Cond3",
    "trial_num": 36,
    "trial_length": 7,
    "click_num": 1,
    "RT": 1706,
    "action": 1,
    "reward": 3.1
  },
  {
    "phase": "TASK",
    "condition": "Cond3",
    "trial_num": 36,
    "trial_length": 7,
    "click_num": 2,
    "RT": 1673,
    "action": 1,
    "reward": 3.4
  },
  {
    "phase": "TASK",
    "condition": "Cond3",
    "trial_num": 36,
    "trial_length": 7,
    "click_num": 3,
    "RT": 1581,
    "action": 1,
    "reward": 3.4
  },
  {
    "phase": "TASK",
    "condition": "Cond3",
    "trial_num": 36,
    "trial_length": 7,
    "click_num": 4,
    "RT": 1520,
    "action": 1,
    "reward": 2.8
  },
  {
    "phase": "TASK",
    "condition": "Cond3",
    "trial_num": 36,
    "trial_length": 7,
    "click_num": 5,
    "RT": 1376,
    "action": 0,
    "reward": 3.4
  },
  {
    "phase": "TASK",
    "condition": "Cond3",
    "trial_num": 36,
    "trial_length": 7,
    "click_num": 6,
    "RT": 1000,
    "action": 0,
    "reward": 3.4
  },
  {
    "phase": "TASK",
    "condition": "Cond3",
    "trial_num": 36,
    "trial_length": 7,
    "click_num": 7,
    "RT": 920,
    "action": 0,
    "reward": 3.4
  },
  {
    "phase": "TASK",
    "condition": "Cond3",
    "trial_num": 37,
    "trial_length": 10,
    "click_num": 1,
    "RT": 1453,
    "action": 1,
    "reward": 2.5
  },
  {
    "phase": "TASK",
    "condition": "Cond3",
    "trial_num": 37,
    "trial_length": 10,
    "click_num": 2,
    "RT": 1920,
    "action": 1,
    "reward": 3.3
  },
  {
    "phase": "TASK",
    "condition": "Cond3",
    "trial_num": 37,
    "trial_length": 10,
    "click_num": 3,
    "RT": 1464,
    "action": 1,
    "reward": 3.6
  },
  {
    "phase": "TASK",
    "condition": "Cond3",
    "trial_num": 37,
    "trial_length": 10,
    "click_num": 4,
    "RT": 1377,
    "action": 0,
    "reward": 3.6
  },
  {
    "phase": "TASK",
    "condition": "Cond3",
    "trial_num": 37,
    "trial_length": 10,
    "click_num": 5,
    "RT": 1016,
    "action": 0,
    "reward": 3.6
  },
  {
    "phase": "TASK",
    "condition": "Cond3",
    "trial_num": 37,
    "trial_length": 10,
    "click_num": 6,
    "RT": 1079,
    "action": 0,
    "reward": 3.6
  },
  {
    "phase": "TASK",
    "condition": "Cond3",
    "trial_num": 37,
    "trial_length": 10,
    "click_num": 7,
    "RT": 1072,
    "action": 0,
    "reward": 3.6
  },
  {
    "phase": "TASK",
    "condition": "Cond3",
    "trial_num": 37,
    "trial_length": 10,
    "click_num": 8,
    "RT": 1050,
    "action": 0,
    "reward": 3.6
  },
  {
    "phase": "TASK",
    "condition": "Cond3",
    "trial_num": 37,
    "trial_length": 10,
    "click_num": 9,
    "RT": 929,
    "action": 0,
    "reward": 3.6
  },
  {
    "phase": "TASK",
    "condition": "Cond3",
    "trial_num": 37,
    "trial_length": 10,
    "click_num": 10,
    "RT": 2118,
    "action": 1,
    "reward": 2.4
  },
  {
    "phase": "TASK",
    "condition": "Cond3",
    "trial_num": 38,
    "trial_length": 7,
    "click_num": 1,
    "RT": 1465,
    "action": 1,
    "reward": 3.9
  },
  {
    "phase": "TASK",
    "condition": "Cond3",
    "trial_num": 38,
    "trial_length": 7,
    "click_num": 2,
    "RT": 1799,
    "action": 0,
    "reward": 3.9
  },
  {
    "phase": "TASK",
    "condition": "Cond3",
    "trial_num": 38,
    "trial_length": 7,
    "click_num": 3,
    "RT": 806,
    "action": 0,
    "reward": 3.9
  },
  {
    "phase": "TASK",
    "condition": "Cond3",
    "trial_num": 38,
    "trial_length": 7,
    "click_num": 4,
    "RT": 1012,
    "action": 0,
    "reward": 3.9
  },
  {
    "phase": "TASK",
    "condition": "Cond3",
    "trial_num": 38,
    "trial_length": 7,
    "click_num": 5,
    "RT": 767,
    "action": 0,
    "reward": 3.9
  },
  {
    "phase": "TASK",
    "condition": "Cond3",
    "trial_num": 38,
    "trial_length": 7,
    "click_num": 6,
    "RT": 1343,
    "action": 0,
    "reward": 3.9
  },
  {
    "phase": "TASK",
    "condition": "Cond3",
    "trial_num": 38,
    "trial_length": 7,
    "click_num": 7,
    "RT": 799,
    "action": 0,
    "reward": 3.9
  },
  {
    "phase": "TASK",
    "condition": "Cond3",
    "trial_num": 39,
    "trial_length": 7,
    "click_num": 1,
    "RT": 1466,
    "action": 1,
    "reward": 3.7
  },
  {
    "phase": "TASK",
    "condition": "Cond3",
    "trial_num": 39,
    "trial_length": 7,
    "click_num": 2,
    "RT": 4389,
    "action": 0,
    "reward": 3.7
  },
  {
    "phase": "TASK",
    "condition": "Cond3",
    "trial_num": 39,
    "trial_length": 7,
    "click_num": 3,
    "RT": 1183,
    "action": 0,
    "reward": 3.7
  },
  {
    "phase": "TASK",
    "condition": "Cond3",
    "trial_num": 39,
    "trial_length": 7,
    "click_num": 4,
    "RT": 968,
    "action": 0,
    "reward": 3.7
  },
  {
    "phase": "TASK",
    "condition": "Cond3",
    "trial_num": 39,
    "trial_length": 7,
    "click_num": 5,
    "RT": 848,
    "action": 0,
    "reward": 3.7
  },
  {
    "phase": "TASK",
    "condition": "Cond3",
    "trial_num": 39,
    "trial_length": 7,
    "click_num": 6,
    "RT": 959,
    "action": 0,
    "reward": 3.7
  },
  {
    "phase": "TASK",
    "condition": "Cond3",
    "trial_num": 39,
    "trial_length": 7,
    "click_num": 7,
    "RT": 1049,
    "action": 1,
    "reward": 2.2
  },
  {
    "phase": "TASK",
    "condition": "Cond3",
    "trial_num": 40,
    "trial_length": 6,
    "click_num": 1,
    "RT": 1815,
    "action": 1,
    "reward": 2.9
  },
  {
    "phase": "TASK",
    "condition": "Cond3",
    "trial_num": 40,
    "trial_length": 6,
    "click_num": 2,
    "RT": 1656,
    "action": 1,
    "reward": 3.2
  },
  {
    "phase": "TASK",
    "condition": "Cond3",
    "trial_num": 40,
    "trial_length": 6,
    "click_num": 3,
    "RT": 1319,
    "action": 1,
    "reward": 2.7
  },
  {
    "phase": "TASK",
    "condition": "Cond3",
    "trial_num": 40,
    "trial_length": 6,
    "click_num": 4,
    "RT": 1304,
    "action": 1,
    "reward": 2.7
  },
  {
    "phase": "TASK",
    "condition": "Cond3",
    "trial_num": 40,
    "trial_length": 6,
    "click_num": 5,
    "RT": 1145,
    "action": 1,
    "reward": 2.9
  },
  {
    "phase": "TASK",
    "condition": "Cond3",
    "trial_num": 40,
    "trial_length": 6,
    "click_num": 6,
    "RT": 1543,
    "action": 1,
    "reward": 2.7
  },
  {
    "phase": "TASK",
    "condition": "Cond3",
    "trial_num": 41,
    "trial_length": 8,
    "click_num": 1,
    "RT": 1240,
    "action": 1,
    "reward": 1.9
  },
  {
    "phase": "TASK",
    "condition": "Cond3",
    "trial_num": 41,
    "trial_length": 8,
    "click_num": 2,
    "RT": 1344,
    "action": 1,
    "reward": 3.8
  },
  {
    "phase": "TASK",
    "condition": "Cond3",
    "trial_num": 41,
    "trial_length": 8,
    "click_num": 3,
    "RT": 1776,
    "action": 0,
    "reward": 3.8
  },
  {
    "phase": "TASK",
    "condition": "Cond3",
    "trial_num": 41,
    "trial_length": 8,
    "click_num": 4,
    "RT": 823,
    "action": 0,
    "reward": 3.8
  },
  {
    "phase": "TASK",
    "condition": "Cond3",
    "trial_num": 41,
    "trial_length": 8,
    "click_num": 5,
    "RT": 808,
    "action": 0,
    "reward": 3.8
  },
  {
    "phase": "TASK",
    "condition": "Cond3",
    "trial_num": 41,
    "trial_length": 8,
    "click_num": 6,
    "RT": 1177,
    "action": 0,
    "reward": 3.8
  },
  {
    "phase": "TASK",
    "condition": "Cond3",
    "trial_num": 41,
    "trial_length": 8,
    "click_num": 7,
    "RT": 1127,
    "action": 0,
    "reward": 3.8
  },
  {
    "phase": "TASK",
    "condition": "Cond3",
    "trial_num": 41,
    "trial_length": 8,
    "click_num": 8,
    "RT": 1144,
    "action": 0,
    "reward": 3.8
  },
  {
    "phase": "TASK",
    "condition": "Cond3",
    "trial_num": 42,
    "trial_length": 5,
    "click_num": 1,
    "RT": 1551,
    "action": 1,
    "reward": 2.6
  },
  {
    "phase": "TASK",
    "condition": "Cond3",
    "trial_num": 42,
    "trial_length": 5,
    "click_num": 2,
    "RT": 1385,
    "action": 1,
    "reward": 2.4
  },
  {
    "phase": "TASK",
    "condition": "Cond3",
    "trial_num": 42,
    "trial_length": 5,
    "click_num": 3,
    "RT": 1248,
    "action": 1,
    "reward": 2.9
  },
  {
    "phase": "TASK",
    "condition": "Cond3",
    "trial_num": 42,
    "trial_length": 5,
    "click_num": 4,
    "RT": 1320,
    "action": 1,
    "reward": 3.8
  },
  {
    "phase": "TASK",
    "condition": "Cond3",
    "trial_num": 42,
    "trial_length": 5,
    "click_num": 5,
    "RT": 1351,
    "action": 0,
    "reward": 3.8
  },
  {
    "phase": "TASK",
    "condition": "Cond3",
    "trial_num": 43,
    "trial_length": 7,
    "click_num": 1,
    "RT": 1413,
    "action": 1,
    "reward": 2.8
  },
  {
    "phase": "TASK",
    "condition": "Cond3",
    "trial_num": 43,
    "trial_length": 7,
    "click_num": 2,
    "RT": 3736,
    "action": 1,
    "reward": 2.9
  },
  {
    "phase": "TASK",
    "condition": "Cond3",
    "trial_num": 43,
    "trial_length": 7,
    "click_num": 3,
    "RT": 1930,
    "action": 1,
    "reward": 2.5
  },
  {
    "phase": "TASK",
    "condition": "Cond3",
    "trial_num": 43,
    "trial_length": 7,
    "click_num": 4,
    "RT": 1322,
    "action": 1,
    "reward": 2.4
  },
  {
    "phase": "TASK",
    "condition": "Cond3",
    "trial_num": 43,
    "trial_length": 7,
    "click_num": 5,
    "RT": 1333,
    "action": 1,
    "reward": 2.8
  },
  {
    "phase": "TASK",
    "condition": "Cond3",
    "trial_num": 43,
    "trial_length": 7,
    "click_num": 6,
    "RT": 1184,
    "action": 1,
    "reward": 2.3
  },
  {
    "phase": "TASK",
    "condition": "Cond3",
    "trial_num": 43,
    "trial_length": 7,
    "click_num": 7,
    "RT": 2055,
    "action": 1,
    "reward": 3.7
  },
  {
    "phase": "TASK",
    "condition": "Cond3",
    "trial_num": 44,
    "trial_length": 8,
    "click_num": 1,
    "RT": 1310,
    "action": 1,
    "reward": 2.7
  },
  {
    "phase": "TASK",
    "condition": "Cond3",
    "trial_num": 44,
    "trial_length": 8,
    "click_num": 2,
    "RT": 1372,
    "action": 1,
    "reward": 1.9
  },
  {
    "phase": "TASK",
    "condition": "Cond3",
    "trial_num": 44,
    "trial_length": 8,
    "click_num": 3,
    "RT": 1373,
    "action": 1,
    "reward": 2.2
  },
  {
    "phase": "TASK",
    "condition": "Cond3",
    "trial_num": 44,
    "trial_length": 8,
    "click_num": 4,
    "RT": 1231,
    "action": 1,
    "reward": 2.2
  },
  {
    "phase": "TASK",
    "condition": "Cond3",
    "trial_num": 44,
    "trial_length": 8,
    "click_num": 5,
    "RT": 1401,
    "action": 1,
    "reward": 2.3
  },
  {
    "phase": "TASK",
    "condition": "Cond3",
    "trial_num": 44,
    "trial_length": 8,
    "click_num": 6,
    "RT": 1375,
    "action": 1,
    "reward": 2.5
  },
  {
    "phase": "TASK",
    "condition": "Cond3",
    "trial_num": 44,
    "trial_length": 8,
    "click_num": 7,
    "RT": 1225,
    "action": 1,
    "reward": 2.2
  },
  {
    "phase": "TASK",
    "condition": "Cond3",
    "trial_num": 44,
    "trial_length": 8,
    "click_num": 8,
    "RT": 1207,
    "action": 1,
    "reward": 2.9
  },
  {
    "phase": "TASK",
    "condition": "Cond3",
    "trial_num": 45,
    "trial_length": 6,
    "click_num": 1,
    "RT": 1358,
    "action": 1,
    "reward": 3.6
  },
  {
    "phase": "TASK",
    "condition": "Cond3",
    "trial_num": 45,
    "trial_length": 6,
    "click_num": 2,
    "RT": 1913,
    "action": 0,
    "reward": 3.6
  },
  {
    "phase": "TASK",
    "condition": "Cond3",
    "trial_num": 45,
    "trial_length": 6,
    "click_num": 3,
    "RT": 873,
    "action": 0,
    "reward": 3.6
  },
  {
    "phase": "TASK",
    "condition": "Cond3",
    "trial_num": 45,
    "trial_length": 6,
    "click_num": 4,
    "RT": 1534,
    "action": 0,
    "reward": 3.6
  },
  {
    "phase": "TASK",
    "condition": "Cond3",
    "trial_num": 45,
    "trial_length": 6,
    "click_num": 5,
    "RT": 1248,
    "action": 0,
    "reward": 3.6
  },
  {
    "phase": "TASK",
    "condition": "Cond3",
    "trial_num": 45,
    "trial_length": 6,
    "click_num": 6,
    "RT": 2201,
    "action": 0,
    "reward": 3.6
  },
  {
    "phase": "TASK",
    "condition": "Cond3",
    "trial_num": 46,
    "trial_length": 9,
    "click_num": 1,
    "RT": 1622,
    "action": 1,
    "reward": 3.3
  },
  {
    "phase": "TASK",
    "condition": "Cond3",
    "trial_num": 46,
    "trial_length": 9,
    "click_num": 2,
    "RT": 3185,
    "action": 1,
    "reward": 2.8
  },
  {
    "phase": "TASK",
    "condition": "Cond3",
    "trial_num": 46,
    "trial_length": 9,
    "click_num": 3,
    "RT": 1185,
    "action": 1,
    "reward": 2.8
  },
  {
    "phase": "TASK",
    "condition": "Cond3",
    "trial_num": 46,
    "trial_length": 9,
    "click_num": 4,
    "RT": 1423,
    "action": 1,
    "reward": 2.9
  },
  {
    "phase": "TASK",
    "condition": "Cond3",
    "trial_num": 46,
    "trial_length": 9,
    "click_num": 5,
    "RT": 1522,
    "action": 0,
    "reward": 3.3
  },
  {
    "phase": "TASK",
    "condition": "Cond3",
    "trial_num": 46,
    "trial_length": 9,
    "click_num": 6,
    "RT": 1094,
    "action": 1,
    "reward": 3.1
  },
  {
    "phase": "TASK",
    "condition": "Cond3",
    "trial_num": 46,
    "trial_length": 9,
    "click_num": 7,
    "RT": 1319,
    "action": 1,
    "reward": 3.2
  },
  {
    "phase": "TASK",
    "condition": "Cond3",
    "trial_num": 46,
    "trial_length": 9,
    "click_num": 8,
    "RT": 1130,
    "action": 0,
    "reward": 3.3
  },
  {
    "phase": "TASK",
    "condition": "Cond3",
    "trial_num": 46,
    "trial_length": 9,
    "click_num": 9,
    "RT": 1112,
    "action": 1,
    "reward": 2.9
  },
  {
    "phase": "TASK",
    "condition": "Cond3",
    "trial_num": 47,
    "trial_length": 5,
    "click_num": 1,
    "RT": 1535,
    "action": 1,
    "reward": 3.3
  },
  {
    "phase": "TASK",
    "condition": "Cond3",
    "trial_num": 47,
    "trial_length": 5,
    "click_num": 2,
    "RT": 2528,
    "action": 0,
    "reward": 3.3
  },
  {
    "phase": "TASK",
    "condition": "Cond3",
    "trial_num": 47,
    "trial_length": 5,
    "click_num": 3,
    "RT": 1219,
    "action": 1,
    "reward": 2.7
  },
  {
    "phase": "TASK",
    "condition": "Cond3",
    "trial_num": 47,
    "trial_length": 5,
    "click_num": 4,
    "RT": 1375,
    "action": 0,
    "reward": 3.3
  },
  {
    "phase": "TASK",
    "condition": "Cond3",
    "trial_num": 47,
    "trial_length": 5,
    "click_num": 5,
    "RT": 1237,
    "action": 0,
    "reward": 3.3
  },
  {
    "phase": "TASK",
    "condition": "Cond3",
    "trial_num": 48,
    "trial_length": 10,
    "click_num": 1,
    "RT": 1238,
    "action": 1,
    "reward": 4.1
  },
  {
    "phase": "TASK",
    "condition": "Cond3",
    "trial_num": 48,
    "trial_length": 10,
    "click_num": 2,
    "RT": 2457,
    "action": 0,
    "reward": 4.1
  },
  {
    "phase": "TASK",
    "condition": "Cond3",
    "trial_num": 48,
    "trial_length": 10,
    "click_num": 3,
    "RT": 1079,
    "action": 0,
    "reward": 4.1
  },
  {
    "phase": "TASK",
    "condition": "Cond3",
    "trial_num": 48,
    "trial_length": 10,
    "click_num": 4,
    "RT": 920,
    "action": 0,
    "reward": 4.1
  },
  {
    "phase": "TASK",
    "condition": "Cond3",
    "trial_num": 48,
    "trial_length": 10,
    "click_num": 5,
    "RT": 913,
    "action": 0,
    "reward": 4.1
  },
  {
    "phase": "TASK",
    "condition": "Cond3",
    "trial_num": 48,
    "trial_length": 10,
    "click_num": 6,
    "RT": 1049,
    "action": 0,
    "reward": 4.1
  },
  {
    "phase": "TASK",
    "condition": "Cond3",
    "trial_num": 48,
    "trial_length": 10,
    "click_num": 7,
    "RT": 782,
    "action": 0,
    "reward": 4.1
  },
  {
    "phase": "TASK",
    "condition": "Cond3",
    "trial_num": 48,
    "trial_length": 10,
    "click_num": 8,
    "RT": 1064,
    "action": 0,
    "reward": 4.1
  },
  {
    "phase": "TASK",
    "condition": "Cond3",
    "trial_num": 48,
    "trial_length": 10,
    "click_num": 9,
    "RT": 1251,
    "action": 0,
    "reward": 4.1
  },
  {
    "phase": "TASK",
    "condition": "Cond3",
    "trial_num": 48,
    "trial_length": 10,
    "click_num": 10,
    "RT": 1053,
    "action": 0,
    "reward": 4.1
  },
  {
    "phase": "TASK",
    "condition": "Cond3",
    "trial_num": 49,
    "trial_length": 6,
    "click_num": 1,
    "RT": 2342,
    "action": 1,
    "reward": 2.5
  },
  {
    "phase": "TASK",
    "condition": "Cond3",
    "trial_num": 49,
    "trial_length": 6,
    "click_num": 2,
    "RT": 1939,
    "action": 1,
    "reward": 3.9
  },
  {
    "phase": "TASK",
    "condition": "Cond3",
    "trial_num": 49,
    "trial_length": 6,
    "click_num": 3,
    "RT": 1456,
    "action": 0,
    "reward": 3.9
  },
  {
    "phase": "TASK",
    "condition": "Cond3",
    "trial_num": 49,
    "trial_length": 6,
    "click_num": 4,
    "RT": 949,
    "action": 0,
    "reward": 3.9
  },
  {
    "phase": "TASK",
    "condition": "Cond3",
    "trial_num": 49,
    "trial_length": 6,
    "click_num": 5,
    "RT": 944,
    "action": 0,
    "reward": 3.9
  },
  {
    "phase": "TASK",
    "condition": "Cond3",
    "trial_num": 49,
    "trial_length": 6,
    "click_num": 6,
    "RT": 1050,
    "action": 0,
    "reward": 3.9
  },
  {
    "phase": "TASK",
    "condition": "Cond3",
    "trial_num": 50,
    "trial_length": 10,
    "click_num": 1,
    "RT": 1433,
    "action": 1,
    "reward": 2.2
  },
  {
    "phase": "TASK",
    "condition": "Cond3",
    "trial_num": 50,
    "trial_length": 10,
    "click_num": 2,
    "RT": 1717,
    "action": 1,
    "reward": 3.8
  },
  {
    "phase": "TASK",
    "condition": "Cond3",
    "trial_num": 50,
    "trial_length": 10,
    "click_num": 3,
    "RT": 1298,
    "action": 0,
    "reward": 3.8
  },
  {
    "phase": "TASK",
    "condition": "Cond3",
    "trial_num": 50,
    "trial_length": 10,
    "click_num": 4,
    "RT": 800,
    "action": 0,
    "reward": 3.8
  },
  {
    "phase": "TASK",
    "condition": "Cond3",
    "trial_num": 50,
    "trial_length": 10,
    "click_num": 5,
    "RT": 782,
    "action": 0,
    "reward": 3.8
  },
  {
    "phase": "TASK",
    "condition": "Cond3",
    "trial_num": 50,
    "trial_length": 10,
    "click_num": 6,
    "RT": 760,
    "action": 0,
    "reward": 3.8
  },
  {
    "phase": "TASK",
    "condition": "Cond3",
    "trial_num": 50,
    "trial_length": 10,
    "click_num": 7,
    "RT": 824,
    "action": 0,
    "reward": 3.8
  },
  {
    "phase": "TASK",
    "condition": "Cond3",
    "trial_num": 50,
    "trial_length": 10,
    "click_num": 8,
    "RT": 784,
    "action": 0,
    "reward": 3.8
  },
  {
    "phase": "TASK",
    "condition": "Cond3",
    "trial_num": 50,
    "trial_length": 10,
    "click_num": 9,
    "RT": 1002,
    "action": 0,
    "reward": 3.8
  },
  {
    "phase": "TASK",
    "condition": "Cond3",
    "trial_num": 50,
    "trial_length": 10,
    "click_num": 10,
    "RT": 1310,
    "action": 0,
    "reward": 3.8
  },
  {
    "phase": "TASK",
    "condition": "Cond3",
    "trial_num": 51,
    "trial_length": 9,
    "click_num": 1,
    "RT": 1094,
    "action": 1,
    "reward": 3
  },
  {
    "phase": "TASK",
    "condition": "Cond3",
    "trial_num": 51,
    "trial_length": 9,
    "click_num": 2,
    "RT": 1675,
    "action": 1,
    "reward": 2.2
  },
  {
    "phase": "TASK",
    "condition": "Cond3",
    "trial_num": 51,
    "trial_length": 9,
    "click_num": 3,
    "RT": 1198,
    "action": 1,
    "reward": 2.8
  },
  {
    "phase": "TASK",
    "condition": "Cond3",
    "trial_num": 51,
    "trial_length": 9,
    "click_num": 4,
    "RT": 1208,
    "action": 1,
    "reward": 3.6
  },
  {
    "phase": "TASK",
    "condition": "Cond3",
    "trial_num": 51,
    "trial_length": 9,
    "click_num": 5,
    "RT": 1423,
    "action": 0,
    "reward": 3.6
  },
  {
    "phase": "TASK",
    "condition": "Cond3",
    "trial_num": 51,
    "trial_length": 9,
    "click_num": 6,
    "RT": 794,
    "action": 0,
    "reward": 3.6
  },
  {
    "phase": "TASK",
    "condition": "Cond3",
    "trial_num": 51,
    "trial_length": 9,
    "click_num": 7,
    "RT": 766,
    "action": 0,
    "reward": 3.6
  },
  {
    "phase": "TASK",
    "condition": "Cond3",
    "trial_num": 51,
    "trial_length": 9,
    "click_num": 8,
    "RT": 2008,
    "action": 0,
    "reward": 3.6
  },
  {
    "phase": "TASK",
    "condition": "Cond3",
    "trial_num": 51,
    "trial_length": 9,
    "click_num": 9,
    "RT": 1007,
    "action": 0,
    "reward": 3.6
  },
  {
    "phase": "TASK",
    "condition": "Cond3",
    "trial_num": 52,
    "trial_length": 5,
    "click_num": 1,
    "RT": 1247,
    "action": 1,
    "reward": 3.2
  },
  {
    "phase": "TASK",
    "condition": "Cond3",
    "trial_num": 52,
    "trial_length": 5,
    "click_num": 2,
    "RT": 3767,
    "action": 1,
    "reward": 2.8
  },
  {
    "phase": "TASK",
    "condition": "Cond3",
    "trial_num": 52,
    "trial_length": 5,
    "click_num": 3,
    "RT": 1792,
    "action": 1,
    "reward": 3.3
  },
  {
    "phase": "TASK",
    "condition": "Cond3",
    "trial_num": 52,
    "trial_length": 5,
    "click_num": 4,
    "RT": 1618,
    "action": 0,
    "reward": 3.3
  },
  {
    "phase": "TASK",
    "condition": "Cond3",
    "trial_num": 52,
    "trial_length": 5,
    "click_num": 5,
    "RT": 1286,
    "action": 0,
    "reward": 3.3
  },
  {
    "phase": "TASK",
    "condition": "Cond3",
    "trial_num": 53,
    "trial_length": 10,
    "click_num": 1,
    "RT": 1952,
    "action": 1,
    "reward": 3.2
  },
  {
    "phase": "TASK",
    "condition": "Cond3",
    "trial_num": 53,
    "trial_length": 10,
    "click_num": 2,
    "RT": 1944,
    "action": 1,
    "reward": 3.6
  },
  {
    "phase": "TASK",
    "condition": "Cond3",
    "trial_num": 53,
    "trial_length": 10,
    "click_num": 3,
    "RT": 1882,
    "action": 0,
    "reward": 3.6
  },
  {
    "phase": "TASK",
    "condition": "Cond3",
    "trial_num": 53,
    "trial_length": 10,
    "click_num": 4,
    "RT": 1174,
    "action": 0,
    "reward": 3.6
  },
  {
    "phase": "TASK",
    "condition": "Cond3",
    "trial_num": 53,
    "trial_length": 10,
    "click_num": 5,
    "RT": 823,
    "action": 0,
    "reward": 3.6
  },
  {
    "phase": "TASK",
    "condition": "Cond3",
    "trial_num": 53,
    "trial_length": 10,
    "click_num": 6,
    "RT": 808,
    "action": 0,
    "reward": 3.6
  },
  {
    "phase": "TASK",
    "condition": "Cond3",
    "trial_num": 53,
    "trial_length": 10,
    "click_num": 7,
    "RT": 786,
    "action": 0,
    "reward": 3.6
  },
  {
    "phase": "TASK",
    "condition": "Cond3",
    "trial_num": 53,
    "trial_length": 10,
    "click_num": 8,
    "RT": 774,
    "action": 0,
    "reward": 3.6
  },
  {
    "phase": "TASK",
    "condition": "Cond3",
    "trial_num": 53,
    "trial_length": 10,
    "click_num": 9,
    "RT": 1945,
    "action": 0,
    "reward": 3.6
  },
  {
    "phase": "TASK",
    "condition": "Cond3",
    "trial_num": 53,
    "trial_length": 10,
    "click_num": 10,
    "RT": 896,
    "action": 0,
    "reward": 3.6
  },
  {
    "phase": "TASK",
    "condition": "Cond3",
    "trial_num": 54,
    "trial_length": 5,
    "click_num": 1,
    "RT": 1237,
    "action": 1,
    "reward": 3.2
  },
  {
    "phase": "TASK",
    "condition": "Cond3",
    "trial_num": 54,
    "trial_length": 5,
    "click_num": 2,
    "RT": 1539,
    "action": 1,
    "reward": 3
  },
  {
    "phase": "TASK",
    "condition": "Cond3",
    "trial_num": 54,
    "trial_length": 5,
    "click_num": 3,
    "RT": 1181,
    "action": 1,
    "reward": 3
  },
  {
    "phase": "TASK",
    "condition": "Cond3",
    "trial_num": 54,
    "trial_length": 5,
    "click_num": 4,
    "RT": 1248,
    "action": 1,
    "reward": 2.8
  },
  {
    "phase": "TASK",
    "condition": "Cond3",
    "trial_num": 54,
    "trial_length": 5,
    "click_num": 5,
    "RT": 2169,
    "action": 1,
    "reward": 3.4
  },
  {
    "phase": "TASK",
    "condition": "Cond3",
    "trial_num": 55,
    "trial_length": 9,
    "click_num": 1,
    "RT": 1376,
    "action": 1,
    "reward": 2.3
  },
  {
    "phase": "TASK",
    "condition": "Cond3",
    "trial_num": 55,
    "trial_length": 9,
    "click_num": 2,
    "RT": 1759,
    "action": 1,
    "reward": 2.3
  },
  {
    "phase": "TASK",
    "condition": "Cond3",
    "trial_num": 55,
    "trial_length": 9,
    "click_num": 3,
    "RT": 1304,
    "action": 1,
    "reward": 3.1
  },
  {
    "phase": "TASK",
    "condition": "Cond3",
    "trial_num": 55,
    "trial_length": 9,
    "click_num": 4,
    "RT": 1377,
    "action": 1,
    "reward": 3.2
  },
  {
    "phase": "TASK",
    "condition": "Cond3",
    "trial_num": 55,
    "trial_length": 9,
    "click_num": 5,
    "RT": 1505,
    "action": 1,
    "reward": 2.8
  },
  {
    "phase": "TASK",
    "condition": "Cond3",
    "trial_num": 55,
    "trial_length": 9,
    "click_num": 6,
    "RT": 2190,
    "action": 1,
    "reward": 3.7
  },
  {
    "phase": "TASK",
    "condition": "Cond3",
    "trial_num": 55,
    "trial_length": 9,
    "click_num": 7,
    "RT": 1616,
    "action": 0,
    "reward": 3.7
  },
  {
    "phase": "TASK",
    "condition": "Cond3",
    "trial_num": 55,
    "trial_length": 9,
    "click_num": 8,
    "RT": 923,
    "action": 0,
    "reward": 3.7
  },
  {
    "phase": "TASK",
    "condition": "Cond3",
    "trial_num": 55,
    "trial_length": 9,
    "click_num": 9,
    "RT": 1854,
    "action": 0,
    "reward": 3.7
  },
  {
    "phase": "TASK",
    "condition": "Cond3",
    "trial_num": 56,
    "trial_length": 10,
    "click_num": 1,
    "RT": 7431,
    "action": 1,
    "reward": 2.2
  },
  {
    "phase": "TASK",
    "condition": "Cond3",
    "trial_num": 56,
    "trial_length": 10,
    "click_num": 2,
    "RT": 1432,
    "action": 1,
    "reward": 3.5
  },
  {
    "phase": "TASK",
    "condition": "Cond3",
    "trial_num": 56,
    "trial_length": 10,
    "click_num": 3,
    "RT": 1623,
    "action": 0,
    "reward": 3.5
  },
  {
    "phase": "TASK",
    "condition": "Cond3",
    "trial_num": 56,
    "trial_length": 10,
    "click_num": 4,
    "RT": 1112,
    "action": 1,
    "reward": 2.9
  },
  {
    "phase": "TASK",
    "condition": "Cond3",
    "trial_num": 56,
    "trial_length": 10,
    "click_num": 5,
    "RT": 1355,
    "action": 1,
    "reward": 2.7
  },
  {
    "phase": "TASK",
    "condition": "Cond3",
    "trial_num": 56,
    "trial_length": 10,
    "click_num": 6,
    "RT": 1061,
    "action": 0,
    "reward": 3.5
  },
  {
    "phase": "TASK",
    "condition": "Cond3",
    "trial_num": 56,
    "trial_length": 10,
    "click_num": 7,
    "RT": 1120,
    "action": 0,
    "reward": 3.5
  },
  {
    "phase": "TASK",
    "condition": "Cond3",
    "trial_num": 56,
    "trial_length": 10,
    "click_num": 8,
    "RT": 848,
    "action": 0,
    "reward": 3.5
  },
  {
    "phase": "TASK",
    "condition": "Cond3",
    "trial_num": 56,
    "trial_length": 10,
    "click_num": 9,
    "RT": 832,
    "action": 0,
    "reward": 3.5
  },
  {
    "phase": "TASK",
    "condition": "Cond3",
    "trial_num": 56,
    "trial_length": 10,
    "click_num": 10,
    "RT": 824,
    "action": 1,
    "reward": 3.4
  },
  {
    "phase": "TASK",
    "condition": "Cond3",
    "trial_num": 57,
    "trial_length": 6,
    "click_num": 1,
    "RT": 1223,
    "action": 1,
    "reward": 2.8
  },
  {
    "phase": "TASK",
    "condition": "Cond3",
    "trial_num": 57,
    "trial_length": 6,
    "click_num": 2,
    "RT": 1568,
    "action": 1,
    "reward": 3.7
  },
  {
    "phase": "TASK",
    "condition": "Cond3",
    "trial_num": 57,
    "trial_length": 6,
    "click_num": 3,
    "RT": 1479,
    "action": 0,
    "reward": 3.7
  },
  {
    "phase": "TASK",
    "condition": "Cond3",
    "trial_num": 57,
    "trial_length": 6,
    "click_num": 4,
    "RT": 913,
    "action": 0,
    "reward": 3.7
  },
  {
    "phase": "TASK",
    "condition": "Cond3",
    "trial_num": 57,
    "trial_length": 6,
    "click_num": 5,
    "RT": 864,
    "action": 0,
    "reward": 3.7
  },
  {
    "phase": "TASK",
    "condition": "Cond3",
    "trial_num": 57,
    "trial_length": 6,
    "click_num": 6,
    "RT": 760,
    "action": 0,
    "reward": 3.7
  },
  {
    "phase": "TASK",
    "condition": "Cond3",
    "trial_num": 58,
    "trial_length": 9,
    "click_num": 1,
    "RT": 1312,
    "action": 1,
    "reward": 3
  },
  {
    "phase": "TASK",
    "condition": "Cond3",
    "trial_num": 58,
    "trial_length": 9,
    "click_num": 2,
    "RT": 1472,
    "action": 1,
    "reward": 3.5
  },
  {
    "phase": "TASK",
    "condition": "Cond3",
    "trial_num": 58,
    "trial_length": 9,
    "click_num": 3,
    "RT": 2256,
    "action": 1,
    "reward": 2.6
  },
  {
    "phase": "TASK",
    "condition": "Cond3",
    "trial_num": 58,
    "trial_length": 9,
    "click_num": 4,
    "RT": 1768,
    "action": 1,
    "reward": 4.1
  },
  {
    "phase": "TASK",
    "condition": "Cond3",
    "trial_num": 58,
    "trial_length": 9,
    "click_num": 5,
    "RT": 1232,
    "action": 0,
    "reward": 4.1
  },
  {
    "phase": "TASK",
    "condition": "Cond3",
    "trial_num": 58,
    "trial_length": 9,
    "click_num": 6,
    "RT": 738,
    "action": 0,
    "reward": 4.1
  },
  {
    "phase": "TASK",
    "condition": "Cond3",
    "trial_num": 58,
    "trial_length": 9,
    "click_num": 7,
    "RT": 1144,
    "action": 0,
    "reward": 4.1
  },
  {
    "phase": "TASK",
    "condition": "Cond3",
    "trial_num": 58,
    "trial_length": 9,
    "click_num": 8,
    "RT": 910,
    "action": 0,
    "reward": 4.1
  },
  {
    "phase": "TASK",
    "condition": "Cond3",
    "trial_num": 58,
    "trial_length": 9,
    "click_num": 9,
    "RT": 904,
    "action": 0,
    "reward": 4.1
  },
  {
    "phase": "TASK",
    "condition": "Cond3",
    "trial_num": 59,
    "trial_length": 5,
    "click_num": 1,
    "RT": 1258,
    "action": 1,
    "reward": 3.3
  },
  {
    "phase": "TASK",
    "condition": "Cond3",
    "trial_num": 59,
    "trial_length": 5,
    "click_num": 2,
    "RT": 1471,
    "action": 1,
    "reward": 2.5
  },
  {
    "phase": "TASK",
    "condition": "Cond3",
    "trial_num": 59,
    "trial_length": 5,
    "click_num": 3,
    "RT": 1697,
    "action": 1,
    "reward": 2.7
  },
  {
    "phase": "TASK",
    "condition": "Cond3",
    "trial_num": 59,
    "trial_length": 5,
    "click_num": 4,
    "RT": 1272,
    "action": 0,
    "reward": 3.3
  },
  {
    "phase": "TASK",
    "condition": "Cond3",
    "trial_num": 59,
    "trial_length": 5,
    "click_num": 5,
    "RT": 1013,
    "action": 0,
    "reward": 3.3
  },
  {
    "phase": "TASK",
    "condition": "Cond3",
    "trial_num": 60,
    "trial_length": 6,
    "click_num": 1,
    "RT": 1103,
    "action": 1,
    "reward": 2.8
  },
  {
    "phase": "TASK",
    "condition": "Cond3",
    "trial_num": 60,
    "trial_length": 6,
    "click_num": 2,
    "RT": 1399,
    "action": 1,
    "reward": 2.1
  },
  {
    "phase": "TASK",
    "condition": "Cond3",
    "trial_num": 60,
    "trial_length": 6,
    "click_num": 3,
    "RT": 1312,
    "action": 1,
    "reward": 3.7
  },
  {
    "phase": "TASK",
    "condition": "Cond3",
    "trial_num": 60,
    "trial_length": 6,
    "click_num": 4,
    "RT": 1914,
    "action": 0,
    "reward": 3.7
  },
  {
    "phase": "TASK",
    "condition": "Cond3",
    "trial_num": 60,
    "trial_length": 6,
    "click_num": 5,
    "RT": 1408,
    "action": 0,
    "reward": 3.7
  },
  {
    "phase": "TASK",
    "condition": "Cond3",
    "trial_num": 60,
    "trial_length": 6,
    "click_num": 6,
    "RT": 1189,
    "action": 0,
    "reward": 3.7
  },
  {
    "phase": "TASK",
    "condition": "Cond3",
    "trial_num": 61,
    "trial_length": 10,
    "click_num": 1,
    "RT": 1362,
    "action": 1,
    "reward": 2.6
  },
  {
    "phase": "TASK",
    "condition": "Cond3",
    "trial_num": 61,
    "trial_length": 10,
    "click_num": 2,
    "RT": 2294,
    "action": 1,
    "reward": 3.7
  },
  {
    "phase": "TASK",
    "condition": "Cond3",
    "trial_num": 61,
    "trial_length": 10,
    "click_num": 3,
    "RT": 1327,
    "action": 0,
    "reward": 3.7
  },
  {
    "phase": "TASK",
    "condition": "Cond3",
    "trial_num": 61,
    "trial_length": 10,
    "click_num": 4,
    "RT": 844,
    "action": 0,
    "reward": 3.7
  },
  {
    "phase": "TASK",
    "condition": "Cond3",
    "trial_num": 61,
    "trial_length": 10,
    "click_num": 5,
    "RT": 724,
    "action": 0,
    "reward": 3.7
  },
  {
    "phase": "TASK",
    "condition": "Cond3",
    "trial_num": 61,
    "trial_length": 10,
    "click_num": 6,
    "RT": 777,
    "action": 0,
    "reward": 3.7
  },
  {
    "phase": "TASK",
    "condition": "Cond3",
    "trial_num": 61,
    "trial_length": 10,
    "click_num": 7,
    "RT": 919,
    "action": 1,
    "reward": 2.4
  },
  {
    "phase": "TASK",
    "condition": "Cond3",
    "trial_num": 61,
    "trial_length": 10,
    "click_num": 8,
    "RT": 1458,
    "action": 0,
    "reward": 3.7
  },
  {
    "phase": "TASK",
    "condition": "Cond3",
    "trial_num": 61,
    "trial_length": 10,
    "click_num": 9,
    "RT": 1461,
    "action": 0,
    "reward": 3.7
  },
  {
    "phase": "TASK",
    "condition": "Cond3",
    "trial_num": 61,
    "trial_length": 10,
    "click_num": 10,
    "RT": 1232,
    "action": 0,
    "reward": 3.7
  },
  {
    "phase": "TASK",
    "condition": "Cond3",
    "trial_num": 62,
    "trial_length": 8,
    "click_num": 1,
    "RT": 1423,
    "action": 1,
    "reward": 2.1
  },
  {
    "phase": "TASK",
    "condition": "Cond3",
    "trial_num": 62,
    "trial_length": 8,
    "click_num": 2,
    "RT": 1479,
    "action": 1,
    "reward": 3.1
  },
  {
    "phase": "TASK",
    "condition": "Cond3",
    "trial_num": 62,
    "trial_length": 8,
    "click_num": 3,
    "RT": 1129,
    "action": 1,
    "reward": 3.1
  },
  {
    "phase": "TASK",
    "condition": "Cond3",
    "trial_num": 62,
    "trial_length": 8,
    "click_num": 4,
    "RT": 1023,
    "action": 1,
    "reward": 2.5
  },
  {
    "phase": "TASK",
    "condition": "Cond3",
    "trial_num": 62,
    "trial_length": 8,
    "click_num": 5,
    "RT": 1097,
    "action": 1,
    "reward": 2.2
  },
  {
    "phase": "TASK",
    "condition": "Cond3",
    "trial_num": 62,
    "trial_length": 8,
    "click_num": 6,
    "RT": 1111,
    "action": 1,
    "reward": 3.1
  },
  {
    "phase": "TASK",
    "condition": "Cond3",
    "trial_num": 62,
    "trial_length": 8,
    "click_num": 7,
    "RT": 1656,
    "action": 1,
    "reward": 3.7
  },
  {
    "phase": "TASK",
    "condition": "Cond3",
    "trial_num": 62,
    "trial_length": 8,
    "click_num": 8,
    "RT": 1304,
    "action": 0,
    "reward": 3.7
  },
  {
    "phase": "TASK",
    "condition": "Cond3",
    "trial_num": 63,
    "trial_length": 6,
    "click_num": 1,
    "RT": 1183,
    "action": 1,
    "reward": 2
  },
  {
    "phase": "TASK",
    "condition": "Cond3",
    "trial_num": 63,
    "trial_length": 6,
    "click_num": 2,
    "RT": 1392,
    "action": 1,
    "reward": 3.7
  },
  {
    "phase": "TASK",
    "condition": "Cond3",
    "trial_num": 63,
    "trial_length": 6,
    "click_num": 3,
    "RT": 1969,
    "action": 0,
    "reward": 3.7
  },
  {
    "phase": "TASK",
    "condition": "Cond3",
    "trial_num": 63,
    "trial_length": 6,
    "click_num": 4,
    "RT": 1223,
    "action": 1,
    "reward": 3.5
  },
  {
    "phase": "TASK",
    "condition": "Cond3",
    "trial_num": 63,
    "trial_length": 6,
    "click_num": 5,
    "RT": 1562,
    "action": 0,
    "reward": 3.7
  },
  {
    "phase": "TASK",
    "condition": "Cond3",
    "trial_num": 63,
    "trial_length": 6,
    "click_num": 6,
    "RT": 1088,
    "action": 0,
    "reward": 3.7
  },
  {
    "phase": "TASK",
    "condition": "Cond3",
    "trial_num": 64,
    "trial_length": 5,
    "click_num": 1,
    "RT": 1208,
    "action": 1,
    "reward": 2.5
  },
  {
    "phase": "TASK",
    "condition": "Cond3",
    "trial_num": 64,
    "trial_length": 5,
    "click_num": 2,
    "RT": 1374,
    "action": 1,
    "reward": 3.3
  },
  {
    "phase": "TASK",
    "condition": "Cond3",
    "trial_num": 64,
    "trial_length": 5,
    "click_num": 3,
    "RT": 1384,
    "action": 1,
    "reward": 1.3
  },
  {
    "phase": "TASK",
    "condition": "Cond3",
    "trial_num": 64,
    "trial_length": 5,
    "click_num": 4,
    "RT": 1377,
    "action": 1,
    "reward": 2.6
  },
  {
    "phase": "TASK",
    "condition": "Cond3",
    "trial_num": 64,
    "trial_length": 5,
    "click_num": 5,
    "RT": 1374,
    "action": 1,
    "reward": 2.7
  },
  {
    "phase": "TASK",
    "condition": "Cond3",
    "trial_num": 65,
    "trial_length": 8,
    "click_num": 1,
    "RT": 1207,
    "action": 1,
    "reward": 2.4
  },
  {
    "phase": "TASK",
    "condition": "Cond3",
    "trial_num": 65,
    "trial_length": 8,
    "click_num": 2,
    "RT": 1152,
    "action": 1,
    "reward": 2.5
  },
  {
    "phase": "TASK",
    "condition": "Cond3",
    "trial_num": 65,
    "trial_length": 8,
    "click_num": 3,
    "RT": 1175,
    "action": 1,
    "reward": 3.7
  },
  {
    "phase": "TASK",
    "condition": "Cond3",
    "trial_num": 65,
    "trial_length": 8,
    "click_num": 4,
    "RT": 1314,
    "action": 0,
    "reward": 3.7
  },
  {
    "phase": "TASK",
    "condition": "Cond3",
    "trial_num": 65,
    "trial_length": 8,
    "click_num": 5,
    "RT": 888,
    "action": 1,
    "reward": 1.5
  },
  {
    "phase": "TASK",
    "condition": "Cond3",
    "trial_num": 65,
    "trial_length": 8,
    "click_num": 6,
    "RT": 2421,
    "action": 0,
    "reward": 3.7
  },
  {
    "phase": "TASK",
    "condition": "Cond3",
    "trial_num": 65,
    "trial_length": 8,
    "click_num": 7,
    "RT": 1096,
    "action": 0,
    "reward": 3.7
  },
  {
    "phase": "TASK",
    "condition": "Cond3",
    "trial_num": 65,
    "trial_length": 8,
    "click_num": 8,
    "RT": 1064,
    "action": 0,
    "reward": 3.7
  },
  {
    "phase": "TASK",
    "condition": "Cond3",
    "trial_num": 66,
    "trial_length": 6,
    "click_num": 1,
    "RT": 1206,
    "action": 1,
    "reward": 2.8
  },
  {
    "phase": "TASK",
    "condition": "Cond3",
    "trial_num": 66,
    "trial_length": 6,
    "click_num": 2,
    "RT": 1704,
    "action": 1,
    "reward": 3.4
  },
  {
    "phase": "TASK",
    "condition": "Cond3",
    "trial_num": 66,
    "trial_length": 6,
    "click_num": 3,
    "RT": 1636,
    "action": 1,
    "reward": 2.2
  },
  {
    "phase": "TASK",
    "condition": "Cond3",
    "trial_num": 66,
    "trial_length": 6,
    "click_num": 4,
    "RT": 1862,
    "action": 0,
    "reward": 3.4
  },
  {
    "phase": "TASK",
    "condition": "Cond3",
    "trial_num": 66,
    "trial_length": 6,
    "click_num": 5,
    "RT": 927,
    "action": 0,
    "reward": 3.4
  },
  {
    "phase": "TASK",
    "condition": "Cond3",
    "trial_num": 66,
    "trial_length": 6,
    "click_num": 6,
    "RT": 847,
    "action": 0,
    "reward": 3.4
  },
  {
    "phase": "TASK",
    "condition": "Cond3",
    "trial_num": 67,
    "trial_length": 9,
    "click_num": 1,
    "RT": 1062,
    "action": 1,
    "reward": 3.3
  },
  {
    "phase": "TASK",
    "condition": "Cond3",
    "trial_num": 67,
    "trial_length": 9,
    "click_num": 2,
    "RT": 1401,
    "action": 1,
    "reward": 2.8
  },
  {
    "phase": "TASK",
    "condition": "Cond3",
    "trial_num": 67,
    "trial_length": 9,
    "click_num": 3,
    "RT": 1095,
    "action": 1,
    "reward": 3.2
  },
  {
    "phase": "TASK",
    "condition": "Cond3",
    "trial_num": 67,
    "trial_length": 9,
    "click_num": 4,
    "RT": 1103,
    "action": 1,
    "reward": 3.2
  },
  {
    "phase": "TASK",
    "condition": "Cond3",
    "trial_num": 67,
    "trial_length": 9,
    "click_num": 5,
    "RT": 1025,
    "action": 1,
    "reward": 3.4
  },
  {
    "phase": "TASK",
    "condition": "Cond3",
    "trial_num": 67,
    "trial_length": 9,
    "click_num": 6,
    "RT": 1897,
    "action": 0,
    "reward": 3.4
  },
  {
    "phase": "TASK",
    "condition": "Cond3",
    "trial_num": 67,
    "trial_length": 9,
    "click_num": 7,
    "RT": 1423,
    "action": 0,
    "reward": 3.4
  },
  {
    "phase": "TASK",
    "condition": "Cond3",
    "trial_num": 67,
    "trial_length": 9,
    "click_num": 8,
    "RT": 1336,
    "action": 0,
    "reward": 3.4
  },
  {
    "phase": "TASK",
    "condition": "Cond3",
    "trial_num": 67,
    "trial_length": 9,
    "click_num": 9,
    "RT": 1185,
    "action": 0,
    "reward": 3.4
  },
  {
    "phase": "TASK",
    "condition": "Cond3",
    "trial_num": 68,
    "trial_length": 7,
    "click_num": 1,
    "RT": 1486,
    "action": 1,
    "reward": 2.4
  },
  {
    "phase": "TASK",
    "condition": "Cond3",
    "trial_num": 68,
    "trial_length": 7,
    "click_num": 2,
    "RT": 1889,
    "action": 1,
    "reward": 2.9
  },
  {
    "phase": "TASK",
    "condition": "Cond3",
    "trial_num": 68,
    "trial_length": 7,
    "click_num": 3,
    "RT": 1959,
    "action": 1,
    "reward": 2.1
  },
  {
    "phase": "TASK",
    "condition": "Cond3",
    "trial_num": 68,
    "trial_length": 7,
    "click_num": 4,
    "RT": 1647,
    "action": 1,
    "reward": 2.4
  },
  {
    "phase": "TASK",
    "condition": "Cond3",
    "trial_num": 68,
    "trial_length": 7,
    "click_num": 5,
    "RT": 1195,
    "action": 1,
    "reward": 2.6
  },
  {
    "phase": "TASK",
    "condition": "Cond3",
    "trial_num": 68,
    "trial_length": 7,
    "click_num": 6,
    "RT": 1589,
    "action": 1,
    "reward": 2.7
  },
  {
    "phase": "TASK",
    "condition": "Cond3",
    "trial_num": 68,
    "trial_length": 7,
    "click_num": 7,
    "RT": 1128,
    "action": 0,
    "reward": 2.9
  },
  {
    "phase": "TASK",
    "condition": "Cond3",
    "trial_num": 69,
    "trial_length": 5,
    "click_num": 1,
    "RT": 1226,
    "action": 1,
    "reward": 2.1
  },
  {
    "phase": "TASK",
    "condition": "Cond3",
    "trial_num": 69,
    "trial_length": 5,
    "click_num": 2,
    "RT": 1231,
    "action": 1,
    "reward": 2.6
  },
  {
    "phase": "TASK",
    "condition": "Cond3",
    "trial_num": 69,
    "trial_length": 5,
    "click_num": 3,
    "RT": 1095,
    "action": 1,
    "reward": 2.4
  },
  {
    "phase": "TASK",
    "condition": "Cond3",
    "trial_num": 69,
    "trial_length": 5,
    "click_num": 4,
    "RT": 1467,
    "action": 1,
    "reward": 3.2
  },
  {
    "phase": "TASK",
    "condition": "Cond3",
    "trial_num": 69,
    "trial_length": 5,
    "click_num": 5,
    "RT": 1344,
    "action": 1,
    "reward": 3.1
  },
  {
    "phase": "TASK",
    "condition": "Cond3",
    "trial_num": 70,
    "trial_length": 6,
    "click_num": 1,
    "RT": 1038,
    "action": 1,
    "reward": 2.7
  },
  {
    "phase": "TASK",
    "condition": "Cond3",
    "trial_num": 70,
    "trial_length": 6,
    "click_num": 2,
    "RT": 1602,
    "action": 1,
    "reward": 3.1
  },
  {
    "phase": "TASK",
    "condition": "Cond3",
    "trial_num": 70,
    "trial_length": 6,
    "click_num": 3,
    "RT": 1239,
    "action": 1,
    "reward": 2.6
  },
  {
    "phase": "TASK",
    "condition": "Cond3",
    "trial_num": 70,
    "trial_length": 6,
    "click_num": 4,
    "RT": 1080,
    "action": 1,
    "reward": 2.7
  },
  {
    "phase": "TASK",
    "condition": "Cond3",
    "trial_num": 70,
    "trial_length": 6,
    "click_num": 5,
    "RT": 1129,
    "action": 1,
    "reward": 2.7
  },
  {
    "phase": "TASK",
    "condition": "Cond3",
    "trial_num": 70,
    "trial_length": 6,
    "click_num": 6,
    "RT": 1127,
    "action": 0,
    "reward": 3.1
  },
  {
    "phase": "TASK",
    "condition": "Cond3",
    "trial_num": 71,
    "trial_length": 7,
    "click_num": 1,
    "RT": 1784,
    "action": 1,
    "reward": 2.6
  },
  {
    "phase": "TASK",
    "condition": "Cond3",
    "trial_num": 71,
    "trial_length": 7,
    "click_num": 2,
    "RT": 1296,
    "action": 1,
    "reward": 4.1
  },
  {
    "phase": "TASK",
    "condition": "Cond3",
    "trial_num": 71,
    "trial_length": 7,
    "click_num": 3,
    "RT": 2041,
    "action": 0,
    "reward": 4.1
  },
  {
    "phase": "TASK",
    "condition": "Cond3",
    "trial_num": 71,
    "trial_length": 7,
    "click_num": 4,
    "RT": 960,
    "action": 0,
    "reward": 4.1
  },
  {
    "phase": "TASK",
    "condition": "Cond3",
    "trial_num": 71,
    "trial_length": 7,
    "click_num": 5,
    "RT": 1694,
    "action": 0,
    "reward": 4.1
  },
  {
    "phase": "TASK",
    "condition": "Cond3",
    "trial_num": 71,
    "trial_length": 7,
    "click_num": 6,
    "RT": 1273,
    "action": 0,
    "reward": 4.1
  },
  {
    "phase": "TASK",
    "condition": "Cond3",
    "trial_num": 71,
    "trial_length": 7,
    "click_num": 7,
    "RT": 1038,
    "action": 0,
    "reward": 4.1
  },
  {
    "phase": "TASK",
    "condition": "Cond3",
    "trial_num": 72,
    "trial_length": 6,
    "click_num": 1,
    "RT": 1446,
    "action": 1,
    "reward": 3.1
  },
  {
    "phase": "TASK",
    "condition": "Cond3",
    "trial_num": 72,
    "trial_length": 6,
    "click_num": 2,
    "RT": 2952,
    "action": 1,
    "reward": 2.9
  },
  {
    "phase": "TASK",
    "condition": "Cond3",
    "trial_num": 72,
    "trial_length": 6,
    "click_num": 3,
    "RT": 1600,
    "action": 0,
    "reward": 3.1
  },
  {
    "phase": "TASK",
    "condition": "Cond3",
    "trial_num": 72,
    "trial_length": 6,
    "click_num": 4,
    "RT": 1216,
    "action": 0,
    "reward": 3.1
  },
  {
    "phase": "TASK",
    "condition": "Cond3",
    "trial_num": 72,
    "trial_length": 6,
    "click_num": 5,
    "RT": 1383,
    "action": 0,
    "reward": 3.1
  },
  {
    "phase": "TASK",
    "condition": "Cond3",
    "trial_num": 72,
    "trial_length": 6,
    "click_num": 6,
    "RT": 992,
    "action": 0,
    "reward": 3.1
  },
  {
    "phase": "TASK",
    "condition": "Cond3",
    "trial_num": 73,
    "trial_length": 6,
    "click_num": 1,
    "RT": 1120,
    "action": 1,
    "reward": 2.9
  },
  {
    "phase": "TASK",
    "condition": "Cond3",
    "trial_num": 73,
    "trial_length": 6,
    "click_num": 2,
    "RT": 2627,
    "action": 1,
    "reward": 2.3
  },
  {
    "phase": "TASK",
    "condition": "Cond3",
    "trial_num": 73,
    "trial_length": 6,
    "click_num": 3,
    "RT": 1518,
    "action": 1,
    "reward": 1.9
  },
  {
    "phase": "TASK",
    "condition": "Cond3",
    "trial_num": 73,
    "trial_length": 6,
    "click_num": 4,
    "RT": 1742,
    "action": 0,
    "reward": 2.9
  },
  {
    "phase": "TASK",
    "condition": "Cond3",
    "trial_num": 73,
    "trial_length": 6,
    "click_num": 5,
    "RT": 859,
    "action": 0,
    "reward": 2.9
  },
  {
    "phase": "TASK",
    "condition": "Cond3",
    "trial_num": 73,
    "trial_length": 6,
    "click_num": 6,
    "RT": 847,
    "action": 0,
    "reward": 2.9
  },
  {
    "phase": "TASK",
    "condition": "Cond3",
    "trial_num": 74,
    "trial_length": 10,
    "click_num": 1,
    "RT": 1111,
    "action": 1,
    "reward": 3.5
  },
  {
    "phase": "TASK",
    "condition": "Cond3",
    "trial_num": 74,
    "trial_length": 10,
    "click_num": 2,
    "RT": 1935,
    "action": 1,
    "reward": 2.8
  },
  {
    "phase": "TASK",
    "condition": "Cond3",
    "trial_num": 74,
    "trial_length": 10,
    "click_num": 3,
    "RT": 1176,
    "action": 1,
    "reward": 3
  },
  {
    "phase": "TASK",
    "condition": "Cond3",
    "trial_num": 74,
    "trial_length": 10,
    "click_num": 4,
    "RT": 1063,
    "action": 0,
    "reward": 3.5
  },
  {
    "phase": "TASK",
    "condition": "Cond3",
    "trial_num": 74,
    "trial_length": 10,
    "click_num": 5,
    "RT": 1153,
    "action": 0,
    "reward": 3.5
  },
  {
    "phase": "TASK",
    "condition": "Cond3",
    "trial_num": 74,
    "trial_length": 10,
    "click_num": 6,
    "RT": 776,
    "action": 0,
    "reward": 3.5
  },
  {
    "phase": "TASK",
    "condition": "Cond3",
    "trial_num": 74,
    "trial_length": 10,
    "click_num": 7,
    "RT": 767,
    "action": 0,
    "reward": 3.5
  },
  {
    "phase": "TASK",
    "condition": "Cond3",
    "trial_num": 74,
    "trial_length": 10,
    "click_num": 8,
    "RT": 1691,
    "action": 0,
    "reward": 3.5
  },
  {
    "phase": "TASK",
    "condition": "Cond3",
    "trial_num": 74,
    "trial_length": 10,
    "click_num": 9,
    "RT": 1103,
    "action": 1,
    "reward": 2.6
  },
  {
    "phase": "TASK",
    "condition": "Cond3",
    "trial_num": 74,
    "trial_length": 10,
    "click_num": 10,
    "RT": 1313,
    "action": 0,
    "reward": 3.5
  },
  {
    "phase": "TASK",
    "condition": "Cond3",
    "trial_num": 75,
    "trial_length": 6,
    "click_num": 1,
    "RT": 1276,
    "action": 1,
    "reward": 3.3
  },
  {
    "phase": "TASK",
    "condition": "Cond3",
    "trial_num": 75,
    "trial_length": 6,
    "click_num": 2,
    "RT": 2337,
    "action": 0,
    "reward": 3.3
  },
  {
    "phase": "TASK",
    "condition": "Cond3",
    "trial_num": 75,
    "trial_length": 6,
    "click_num": 3,
    "RT": 1513,
    "action": 0,
    "reward": 3.3
  },
  {
    "phase": "TASK",
    "condition": "Cond3",
    "trial_num": 75,
    "trial_length": 6,
    "click_num": 4,
    "RT": 1142,
    "action": 0,
    "reward": 3.3
  },
  {
    "phase": "TASK",
    "condition": "Cond3",
    "trial_num": 75,
    "trial_length": 6,
    "click_num": 5,
    "RT": 859,
    "action": 0,
    "reward": 3.3
  },
  {
    "phase": "TASK",
    "condition": "Cond3",
    "trial_num": 75,
    "trial_length": 6,
    "click_num": 6,
    "RT": 992,
    "action": 0,
    "reward": 3.3
  },
  {
    "phase": "TASK",
    "condition": "Cond3",
    "trial_num": 76,
    "trial_length": 8,
    "click_num": 1,
    "RT": 1454,
    "action": 1,
    "reward": 2.8
  },
  {
    "phase": "TASK",
    "condition": "Cond3",
    "trial_num": 76,
    "trial_length": 8,
    "click_num": 2,
    "RT": 1530,
    "action": 1,
    "reward": 3.9
  },
  {
    "phase": "TASK",
    "condition": "Cond3",
    "trial_num": 76,
    "trial_length": 8,
    "click_num": 3,
    "RT": 1632,
    "action": 0,
    "reward": 3.9
  },
  {
    "phase": "TASK",
    "condition": "Cond3",
    "trial_num": 76,
    "trial_length": 8,
    "click_num": 4,
    "RT": 878,
    "action": 0,
    "reward": 3.9
  },
  {
    "phase": "TASK",
    "condition": "Cond3",
    "trial_num": 76,
    "trial_length": 8,
    "click_num": 5,
    "RT": 1040,
    "action": 0,
    "reward": 3.9
  },
  {
    "phase": "TASK",
    "condition": "Cond3",
    "trial_num": 76,
    "trial_length": 8,
    "click_num": 6,
    "RT": 802,
    "action": 0,
    "reward": 3.9
  },
  {
    "phase": "TASK",
    "condition": "Cond3",
    "trial_num": 76,
    "trial_length": 8,
    "click_num": 7,
    "RT": 790,
    "action": 0,
    "reward": 3.9
  },
  {
    "phase": "TASK",
    "condition": "Cond3",
    "trial_num": 76,
    "trial_length": 8,
    "click_num": 8,
    "RT": 1049,
    "action": 0,
    "reward": 3.9
  },
  {
    "phase": "TASK",
    "condition": "Cond3",
    "trial_num": 77,
    "trial_length": 10,
    "click_num": 1,
    "RT": 1062,
    "action": 1,
    "reward": 2.7
  },
  {
    "phase": "TASK",
    "condition": "Cond3",
    "trial_num": 77,
    "trial_length": 10,
    "click_num": 2,
    "RT": 1137,
    "action": 1,
    "reward": 3.1
  },
  {
    "phase": "TASK",
    "condition": "Cond3",
    "trial_num": 77,
    "trial_length": 10,
    "click_num": 3,
    "RT": 1271,
    "action": 1,
    "reward": 2.5
  },
  {
    "phase": "TASK",
    "condition": "Cond3",
    "trial_num": 77,
    "trial_length": 10,
    "click_num": 4,
    "RT": 1144,
    "action": 1,
    "reward": 3.6
  },
  {
    "phase": "TASK",
    "condition": "Cond3",
    "trial_num": 77,
    "trial_length": 10,
    "click_num": 5,
    "RT": 1202,
    "action": 0,
    "reward": 3.6
  },
  {
    "phase": "TASK",
    "condition": "Cond3",
    "trial_num": 77,
    "trial_length": 10,
    "click_num": 6,
    "RT": 894,
    "action": 0,
    "reward": 3.6
  },
  {
    "phase": "TASK",
    "condition": "Cond3",
    "trial_num": 77,
    "trial_length": 10,
    "click_num": 7,
    "RT": 783,
    "action": 0,
    "reward": 3.6
  },
  {
    "phase": "TASK",
    "condition": "Cond3",
    "trial_num": 77,
    "trial_length": 10,
    "click_num": 8,
    "RT": 784,
    "action": 0,
    "reward": 3.6
  },
  {
    "phase": "TASK",
    "condition": "Cond3",
    "trial_num": 77,
    "trial_length": 10,
    "click_num": 9,
    "RT": 811,
    "action": 0,
    "reward": 3.6
  },
  {
    "phase": "TASK",
    "condition": "Cond3",
    "trial_num": 77,
    "trial_length": 10,
    "click_num": 10,
    "RT": 1416,
    "action": 0,
    "reward": 3.6
  },
  {
