[
  {
    "phase": "TASK",
    "condition": "Cond3",
    "trial_num": 1,
    "trial_length": 6,
    "click_num": 1,
    "RT": 8123,
    "action": 1,
    "reward": 3.2
  },
  {
    "phase": "TASK",
    "condition": "Cond3",
    "trial_num": 1,
    "trial_length": 6,
    "click_num": 2,
    "RT": 11600,
    "action": 1,
    "reward": 3.2
  },
  {
    "phase": "TASK",
    "condition": "Cond3",
    "trial_num": 1,
    "trial_length": 6,
    "click_num": 3,
    "RT": 6726,
    "action": 1,
    "reward": 3.4
  },
  {
    "phase": "TASK",
    "condition": "Cond3",
    "trial_num": 1,
    "trial_length": 6,
    "click_num": 4,
    "RT": 8112,
    "action": 1,
    "reward": 3.5
  },
  {
    "phase": "TASK",
    "condition": "Cond3",
    "trial_num": 1,
    "trial_length": 6,
    "click_num": 5,
    "RT": 14696,
    "action": 1,
    "reward": 3
  },
  {
    "phase": "TASK",
    "condition": "Cond3",
    "trial_num": 1,
    "trial_length": 6,
    "click_num": 6,
    "RT": 8559,
    "action": 1,
    "reward": 3.4
  },
  {
    "phase": "TASK",
    "condition": "Cond3",
    "trial_num": 2,
    "trial_length": 7,
    "click_num": 1,
    "RT": 3791,
    "action": 1,
    "reward": 3.2
  },
  {
    "phase": "TASK",
    "condition": "Cond3",
    "trial_num": 2,
    "trial_length": 7,
    "click_num": 2,
    "RT": 5767,
    "action": 1,
    "reward": 2.1
  },
  {
    "phase": "TASK",
    "condition": "Cond3",
    "trial_num": 2,
    "trial_length": 7,
    "click_num": 3,
    "RT": 2240,
    "action": 1,
    "reward": 2.6
  },
  {
    "phase": "TASK",
    "condition": "Cond3",
    "trial_num": 2,
    "trial_length": 7,
    "click_num": 4,
    "RT": 1727,
    "action": 1,
    "reward": 3.3
  },
  {
    "phase": "TASK",
    "condition": "Cond3",
    "trial_num": 2,
    "trial_length": 7,
    "click_num": 5,
    "RT": 2393,
    "action": 1,
    "reward": 2.4
  },
  {
    "phase": "TASK",
    "condition": "Cond3",
    "trial_num": 2,
    "trial_length": 7,
    "click_num": 6,
    "RT": 1370,
    "action": 1,
    "reward": 1.9
  },
  {
    "phase": "TASK",
    "condition": "Cond3",
    "trial_num": 2,
    "trial_length": 7,
    "click_num": 7,
    "RT": 1509,
    "action": 1,
    "reward": 3.2
  },
  {
    "phase": "TASK",
    "condition": "Cond3",
    "trial_num": 3,
    "trial_length": 7,
    "click_num": 1,
    "RT": 1949,
    "action": 1,
    "reward": 3.4
  },
  {
    "phase": "TASK",
    "condition": "Cond3",
    "trial_num": 3,
    "trial_length": 7,
    "click_num": 2,
    "RT": 1776,
    "action": 1,
    "reward": 2.2
  },
  {
    "phase": "TASK",
    "condition": "Cond3",
    "trial_num": 3,
    "trial_length": 7,
    "click_num": 3,
    "RT": 1953,
    "action": 1,
    "reward": 3.6
  },
  {
    "phase": "TASK",
    "condition": "Cond3",
    "trial_num": 3,
    "trial_length": 7,
    "click_num": 4,
    "RT": 6496,
    "action": 0,
    "reward": 3.6
  },
  {
    "phase": "TASK",
    "condition": "Cond3",
    "trial_num": 3,
    "trial_length": 7,
    "click_num": 5,
    "RT": 4815,
    "action": 0,
    "reward": 3.6
  },
  {
    "phase": "TASK",
    "condition": "Cond3",
    "trial_num": 3,
    "trial_length": 7,
    "click_num": 6,
    "RT": 1865,
    "action": 0,
    "reward": 3.6
  },
  {
    "phase": "TASK",
    "condition": "Cond3",
    "trial_num": 3,
    "trial_length": 7,
    "click_num": 7,
    "RT": 1327,
    "action": 0,
    "reward": 3.6
  },
  {
    "phase": "TASK",
    "condition": "Cond3",
    "trial_num": 4,
    "trial_length": 6,
    "click_num": 1,
    "RT": 3070,
    "action": 1,
    "reward": 2.8
  },
  {
    "phase": "TASK",
    "condition": "Cond3",
    "trial_num": 4,
    "trial_length": 6,
    "click_num": 2,
    "RT": 10742,
    "action": 1,
    "reward": 3.5
  },
  {
    "phase": "TASK",
    "condition": "Cond3",
    "trial_num": 4,
    "trial_length": 6,
    "click_num": 3,
    "RT": 2289,
    "action": 1,
    "reward": 2.1
  },
  {
    "phase": "TASK",
    "condition": "Cond3",
    "trial_num": 4,
    "trial_length": 6,
    "click_num": 4,
    "RT": 1808,
    "action": 1,
    "reward": 2.8
  },
  {
    "phase": "TASK",
    "condition": "Cond3",
    "trial_num": 4,
    "trial_length": 6,
    "click_num": 5,
    "RT": 1225,
    "action": 1,
    "reward": 3.4
  },
  {
    "phase": "TASK",
    "condition": "Cond3",
    "trial_num": 4,
    "trial_length": 6,
    "click_num": 6,
    "RT": 1807,
    "action": 1,
    "reward": 2.3
  },
  {
    "phase": "TASK",
    "condition": "Cond3",
    "trial_num": 5,
    "trial_length": 10,
    "click_num": 1,
    "RT": 1929,
    "action": 1,
    "reward": 2.5
  },
  {
    "phase": "TASK",
    "condition": "Cond3",
    "trial_num": 5,
    "trial_length": 10,
    "click_num": 2,
    "RT": 1927,
    "action": 1,
    "reward": 3.2
  },
  {
    "phase": "TASK",
    "condition": "Cond3",
    "trial_num": 5,
    "trial_length": 10,
    "click_num": 3,
    "RT": 1463,
    "action": 1,
    "reward": 2.2
  },
  {
    "phase": "TASK",
    "condition": "Cond3",
    "trial_num": 5,
    "trial_length": 10,
    "click_num": 4,
    "RT": 1377,
    "action": 1,
    "reward": 3
  },
  {
    "phase": "TASK",
    "condition": "Cond3",
    "trial_num": 5,
    "trial_length": 10,
    "click_num": 5,
    "RT": 1111,
    "action": 1,
    "reward": 3.9
  },
  {
    "phase": "TASK",
    "condition": "Cond3",
    "trial_num": 5,
    "trial_length": 10,
    "click_num": 6,
    "RT": 2272,
    "action": 0,
    "reward": 3.9
  },
  {
    "phase": "TASK",
    "condition": "Cond3",
    "trial_num": 5,
    "trial_length": 10,
    "click_num": 7,
    "RT": 1417,
    "action": 0,
    "reward": 3.9
  },
  {
    "phase": "TASK",
    "condition": "Cond3",
    "trial_num": 5,
    "trial_length": 10,
    "click_num": 8,
    "RT": 1168,
    "action": 0,
    "reward": 3.9
  },
  {
    "phase": "TASK",
    "condition": "Cond3",
    "trial_num": 5,
    "trial_length": 10,
    "click_num": 9,
    "RT": 1288,
    "action": 0,
    "reward": 3.9
  },
  {
    "phase": "TASK",
    "condition": "Cond3",
    "trial_num": 5,
    "trial_length": 10,
    "click_num": 10,
    "RT": 1152,
    "action": 0,
    "reward": 3.9
  },
  {
    "phase": "TASK",
    "condition": "Cond3",
    "trial_num": 6,
    "trial_length": 6,
    "click_num": 1,
    "RT": 3062,
    "action": 1,
    "reward": 2.8
  },
  {
    "phase": "TASK",
    "condition": "Cond3",
    "trial_num": 6,
    "trial_length": 6,
    "click_num": 2,
    "RT": 2655,
    "action": 1,
    "reward": 4
  },
  {
    "phase": "TASK",
    "condition": "Cond3",
    "trial_num": 6,
    "trial_length": 6,
    "click_num": 3,
    "RT": 20457,
    "action": 0,
    "reward": 4
  },
  {
    "phase": "TASK",
    "condition": "Cond3",
    "trial_num": 6,
    "trial_length": 6,
    "click_num": 4,
    "RT": 1823,
    "action": 0,
    "reward": 4
  },
  {
    "phase": "TASK",
    "condition": "Cond3",
    "trial_num": 6,
    "trial_length": 6,
    "click_num": 5,
    "RT": 1096,
    "action": 0,
    "reward": 4
  },
  {
    "phase": "TASK",
    "condition": "Cond3",
    "trial_num": 6,
    "trial_length": 6,
    "click_num": 6,
    "RT": 960,
    "action": 0,
    "reward": 4
  },
  {
    "phase": "TASK",
    "condition": "Cond3",
    "trial_num": 7,
    "trial_length": 10,
    "click_num": 1,
    "RT": 2229,
    "action": 1,
    "reward": 4.5
  },
  {
    "phase": "TASK",
    "condition": "Cond3",
    "trial_num": 7,
    "trial_length": 10,
    "click_num": 2,
    "RT": 2760,
    "action": 0,
    "reward": 4.5
  },
  {
    "phase": "TASK",
    "condition": "Cond3",
    "trial_num": 7,
    "trial_length": 10,
    "click_num": 3,
    "RT": 1439,
    "action": 0,
    "reward": 4.5
  },
  {
    "phase": "TASK",
    "condition": "Cond3",
    "trial_num": 7,
    "trial_length": 10,
    "click_num": 4,
    "RT": 1056,
    "action": 0,
    "reward": 4.5
  },
  {
    "phase": "TASK",
    "condition": "Cond3",
    "trial_num": 7,
    "trial_length": 10,
    "click_num": 5,
    "RT": 1129,
    "action": 0,
    "reward": 4.5
  },
  {
    "phase": "TASK",
    "condition": "Cond3",
    "trial_num": 7,
    "trial_length": 10,
    "click_num": 6,
    "RT": 984,
    "action": 0,
    "reward": 4.5
  },
  {
    "phase": "TASK",
    "condition": "Cond3",
    "trial_num": 7,
    "trial_length": 10,
    "click_num": 7,
    "RT": 992,
    "action": 0,
    "reward": 4.5
  },
  {
    "phase": "TASK",
    "condition": "Cond3",
    "trial_num": 7,
    "trial_length": 10,
    "click_num": 8,
    "RT": 1015,
    "action": 0,
    "reward": 4.5
  },
  {
    "phase": "TASK",
    "condition": "Cond3",
    "trial_num": 7,
    "trial_length": 10,
    "click_num": 9,
    "RT": 1153,
    "action": 0,
    "reward": 4.5
  },
  {
    "phase": "TASK",
    "condition": "Cond3",
    "trial_num": 7,
    "trial_length": 10,
    "click_num": 10,
    "RT": 1760,
    "action": 0,
    "reward": 4.5
  },
  {
    "phase": "TASK",
    "condition": "Cond3",
    "trial_num": 8,
    "trial_length": 10,
    "click_num": 1,
    "RT": 3263,
    "action": 1,
    "reward": 2.5
  },
  {
    "phase": "TASK",
    "condition": "Cond3",
    "trial_num": 8,
    "trial_length": 10,
    "click_num": 2,
    "RT": 3456,
    "action": 1,
    "reward": 2.3
  },
  {
    "phase": "TASK",
    "condition": "Cond3",
    "trial_num": 8,
    "trial_length": 10,
    "click_num": 3,
    "RT": 1352,
    "action": 1,
    "reward": 2.1
  },
  {
    "phase": "TASK",
    "condition": "Cond3",
    "trial_num": 8,
    "trial_length": 10,
    "click_num": 4,
    "RT": 1114,
    "action": 1,
    "reward": 3.4
  },
  {
    "phase": "TASK",
    "condition": "Cond3",
    "trial_num": 8,
    "trial_length": 10,
    "click_num": 5,
    "RT": 2680,
    "action": 1,
    "reward": 3
  },
  {
    "phase": "TASK",
    "condition": "Cond3",
    "trial_num": 8,
    "trial_length": 10,
    "click_num": 6,
    "RT": 1439,
    "action": 1,
    "reward": 1.1
  },
  {
    "phase": "TASK",
    "condition": "Cond3",
    "trial_num": 8,
    "trial_length": 10,
    "click_num": 7,
    "RT": 1488,
    "action": 1,
    "reward": 3.2
  },
  {
    "phase": "TASK",
    "condition": "Cond3",
    "trial_num": 8,
    "trial_length": 10,
    "click_num": 8,
    "RT": 1695,
    "action": 1,
    "reward": 2.6
  },
  {
    "phase": "TASK",
    "condition": "Cond3",
    "trial_num": 8,
    "trial_length": 10,
    "click_num": 9,
    "RT": 1441,
    "action": 1,
    "reward": 3.3
  },
  {
    "phase": "TASK",
    "condition": "Cond3",
    "trial_num": 8,
    "trial_length": 10,
    "click_num": 10,
    "RT": 2240,
    "action": 1,
    "reward": 3.4
  },
  {
    "phase": "TASK",
    "condition": "Cond3",
    "trial_num": 9,
    "trial_length": 8,
    "click_num": 1,
    "RT": 1902,
    "action": 1,
    "reward": 1.8
  },
  {
    "phase": "TASK",
    "condition": "Cond3",
    "trial_num": 9,
    "trial_length": 8,
    "click_num": 2,
    "RT": 2024,
    "action": 1,
    "reward": 4.2
  },
  {
    "phase": "TASK",
    "condition": "Cond3",
    "trial_num": 9,
    "trial_length": 8,
    "click_num": 3,
    "RT": 2240,
    "action": 0,
    "reward": 4.2
  },
  {
    "phase": "TASK",
    "condition": "Cond3",
    "trial_num": 9,
    "trial_length": 8,
    "click_num": 4,
    "RT": 1299,
    "action": 0,
    "reward": 4.2
  },
  {
    "phase": "TASK",
    "condition": "Cond3",
    "trial_num": 9,
    "trial_length": 8,
    "click_num": 5,
    "RT": 1509,
    "action": 0,
    "reward": 4.2
  },
  {
    "phase": "TASK",
    "condition": "Cond3",
    "trial_num": 9,
    "trial_length": 8,
    "click_num": 6,
    "RT": 1192,
    "action": 0,
    "reward": 4.2
  },
  {
    "phase": "TASK",
    "condition": "Cond3",
    "trial_num": 9,
    "trial_length": 8,
    "click_num": 7,
    "RT": 1066,
    "action": 0,
    "reward": 4.2
  },
  {
    "phase": "TASK",
    "condition": "Cond3",
    "trial_num": 9,
    "trial_length": 8,
    "click_num": 8,
    "RT": 1214,
    "action": 0,
    "reward": 4.2
  },
  {
    "phase": "TASK",
    "condition": "Cond3",
    "trial_num": 10,
    "trial_length": 7,
    "click_num": 1,
    "RT": 2589,
    "action": 1,
    "reward": 3.9
  },
  {
    "phase": "TASK",
    "condition": "Cond3",
    "trial_num": 10,
    "trial_length": 7,
    "click_num": 2,
    "RT": 5337,
    "action": 1,
    "reward": 2.6
  },
  {
    "phase": "TASK",
    "condition": "Cond3",
    "trial_num": 10,
    "trial_length": 7,
    "click_num": 3,
    "RT": 1287,
    "action": 1,
    "reward": 2.9
  },
  {
    "phase": "TASK",
    "condition": "Cond3",
    "trial_num": 10,
    "trial_length": 7,
    "click_num": 4,
    "RT": 1313,
    "action": 1,
    "reward": 2.7
  },
  {
    "phase": "TASK",
    "condition": "Cond3",
    "trial_num": 10,
    "trial_length": 7,
    "click_num": 5,
    "RT": 1122,
    "action": 1,
    "reward": 2.5
  },
  {
    "phase": "TASK",
    "condition": "Cond3",
    "trial_num": 10,
    "trial_length": 7,
    "click_num": 6,
    "RT": 1230,
    "action": 1,
    "reward": 2.8
  },
  {
    "phase": "TASK",
    "condition": "Cond3",
    "trial_num": 10,
    "trial_length": 7,
    "click_num": 7,
    "RT": 1088,
    "action": 1,
    "reward": 2.7
  },
  {
    "phase": "TASK",
    "condition": "Cond3",
    "trial_num": 11,
    "trial_length": 6,
    "click_num": 1,
    "RT": 1470,
    "action": 1,
    "reward": 2.7
  },
  {
    "phase": "TASK",
    "condition": "Cond3",
    "trial_num": 11,
    "trial_length": 6,
    "click_num": 2,
    "RT": 1327,
    "action": 1,
    "reward": 3
  },
  {
    "phase": "TASK",
    "condition": "Cond3",
    "trial_num": 11,
    "trial_length": 6,
    "click_num": 3,
    "RT": 1721,
    "action": 1,
    "reward": 3.9
  },
  {
    "phase": "TASK",
    "condition": "Cond3",
    "trial_num": 11,
    "trial_length": 6,
    "click_num": 4,
    "RT": 1791,
    "action": 0,
    "reward": 3.9
  },
  {
    "phase": "TASK",
    "condition": "Cond3",
    "trial_num": 11,
    "trial_length": 6,
    "click_num": 5,
    "RT": 1345,
    "action": 0,
    "reward": 3.9
  },
  {
    "phase": "TASK",
    "condition": "Cond3",
    "trial_num": 11,
    "trial_length": 6,
    "click_num": 6,
    "RT": 1168,
    "action": 0,
    "reward": 3.9
  },
  {
    "phase": "TASK",
    "condition": "Cond3",
    "trial_num": 12,
    "trial_length": 7,
    "click_num": 1,
    "RT": 2063,
    "action": 1,
    "reward": 2.6
  },
  {
    "phase": "TASK",
    "condition": "Cond3",
    "trial_num": 12,
    "trial_length": 7,
    "click_num": 2,
    "RT": 1896,
    "action": 1,
    "reward": 3.7
  },
  {
    "phase": "TASK",
    "condition": "Cond3",
    "trial_num": 12,
    "trial_length": 7,
    "click_num": 3,
    "RT": 1072,
    "action": 1,
    "reward": 2.3
  },
  {
    "phase": "TASK",
    "condition": "Cond3",
    "trial_num": 12,
    "trial_length": 7,
    "click_num": 4,
    "RT": 1928,
    "action": 1,
    "reward": 3.1
  },
  {
    "phase": "TASK",
    "condition": "Cond3",
    "trial_num": 12,
    "trial_length": 7,
    "click_num": 5,
    "RT": 1183,
    "action": 1,
    "reward": 3.4
  },
  {
    "phase": "TASK",
    "condition": "Cond3",
    "trial_num": 12,
    "trial_length": 7,
    "click_num": 6,
    "RT": 1192,
    "action": 1,
    "reward": 2.1
  },
  {
    "phase": "TASK",
    "condition": "Cond3",
    "trial_num": 12,
    "trial_length": 7,
    "click_num": 7,
    "RT": 1289,
    "action": 1,
    "reward": 3.1
  },
  {
    "phase": "TASK",
    "condition": "Cond3",
    "trial_num": 13,
    "trial_length": 6,
    "click_num": 1,
    "RT": 1720,
    "action": 1,
    "reward": 2.4
  },
  {
    "phase": "TASK",
    "condition": "Cond3",
    "trial_num": 13,
    "trial_length": 6,
    "click_num": 2,
    "RT": 1529,
    "action": 1,
    "reward": 3.5
  },
  {
    "phase": "TASK",
    "condition": "Cond3",
    "trial_num": 13,
    "trial_length": 6,
    "click_num": 3,
    "RT": 2535,
    "action": 1,
    "reward": 2.8
  },
  {
    "phase": "TASK",
    "condition": "Cond3",
    "trial_num": 13,
    "trial_length": 6,
    "click_num": 4,
    "RT": 1328,
    "action": 1,
    "reward": 3.7
  },
  {
    "phase": "TASK",
    "condition": "Cond3",
    "trial_num": 13,
    "trial_length": 6,
    "click_num": 5,
    "RT": 1687,
    "action": 0,
    "reward": 3.7
  },
  {
    "phase": "TASK",
    "condition": "Cond3",
    "trial_num": 13,
    "trial_length": 6,
    "click_num": 6,
    "RT": 1186,
    "action": 0,
    "reward": 3.7
  },
  {
    "phase": "TASK",
    "condition": "Cond3",
    "trial_num": 14,
    "trial_length": 7,
    "click_num": 1,
    "RT": 1582,
    "action": 1,
    "reward": 4.3
  },
  {
    "phase": "TASK",
    "condition": "Cond3",
    "trial_num": 14,
    "trial_length": 7,
    "click_num": 2,
    "RT": 2298,
    "action": 0,
    "reward": 4.3
  },
  {
    "phase": "TASK",
    "condition": "Cond3",
    "trial_num": 14,
    "trial_length": 7,
    "click_num": 3,
    "RT": 990,
    "action": 0,
    "reward": 4.3
  },
  {
    "phase": "TASK",
    "condition": "Cond3",
    "trial_num": 14,
    "trial_length": 7,
    "click_num": 4,
    "RT": 1000,
    "action": 0,
    "reward": 4.3
  },
  {
    "phase": "TASK",
    "condition": "Cond3",
    "trial_num": 14,
    "trial_length": 7,
    "click_num": 5,
    "RT": 888,
    "action": 0,
    "reward": 4.3
  },
  {
    "phase": "TASK",
    "condition": "Cond3",
    "trial_num": 14,
    "trial_length": 7,
    "click_num": 6,
    "RT": 1032,
    "action": 0,
    "reward": 4.3
  },
  {
    "phase": "TASK",
    "condition": "Cond3",
    "trial_num": 14,
    "trial_length": 7,
    "click_num": 7,
    "RT": 913,
    "action": 0,
    "reward": 4.3
  },
  {
    "phase": "TASK",
    "condition": "Cond3",
    "trial_num": 15,
    "trial_length": 9,
    "click_num": 1,
    "RT": 2359,
    "action": 1,
    "reward": 2.6
  },
  {
    "phase": "TASK",
    "condition": "Cond3",
    "trial_num": 15,
    "trial_length": 9,
    "click_num": 2,
    "RT": 1432,
    "action": 1,
    "reward": 3.6
  },
  {
    "phase": "TASK",
    "condition": "Cond3",
    "trial_num": 15,
    "trial_length": 9,
    "click_num": 3,
    "RT": 4376,
    "action": 1,
    "reward": 3
  },
  {
    "phase": "TASK",
    "condition": "Cond3",
    "trial_num": 15,
    "trial_length": 9,
    "click_num": 4,
    "RT": 1456,
    "action": 1,
    "reward": 3.8
  },
  {
    "phase": "TASK",
    "condition": "Cond3",
    "trial_num": 15,
    "trial_length": 9,
    "click_num": 5,
    "RT": 1831,
    "action": 0,
    "reward": 3.8
  },
  {
    "phase": "TASK",
    "condition": "Cond3",
    "trial_num": 15,
    "trial_length": 9,
    "click_num": 6,
    "RT": 913,
    "action": 0,
    "reward": 3.8
  },
  {
    "phase": "TASK",
    "condition": "Cond3",
    "trial_num": 15,
    "trial_length": 9,
    "click_num": 7,
    "RT": 1075,
    "action": 0,
    "reward": 3.8
  },
  {
    "phase": "TASK",
    "condition": "Cond3",
    "trial_num": 15,
    "trial_length": 9,
    "click_num": 8,
    "RT": 1173,
    "action": 0,
    "reward": 3.8
  },
  {
    "phase": "TASK",
    "condition": "Cond3",
    "trial_num": 15,
    "trial_length": 9,
    "click_num": 9,
    "RT": 1168,
    "action": 0,
    "reward": 3.8
  },
  {
    "phase": "TASK",
    "condition": "Cond3",
    "trial_num": 16,
    "trial_length": 8,
    "click_num": 1,
    "RT": 1628,
    "action": 1,
    "reward": 1.5
  },
  {
    "phase": "TASK",
    "condition": "Cond3",
    "trial_num": 16,
    "trial_length": 8,
    "click_num": 2,
    "RT": 1455,
    "action": 1,
    "reward": 3.4
  },
  {
    "phase": "TASK",
    "condition": "Cond3",
    "trial_num": 16,
    "trial_length": 8,
    "click_num": 3,
    "RT": 1041,
    "action": 1,
    "reward": 2
  },
  {
    "phase": "TASK",
    "condition": "Cond3",
    "trial_num": 16,
    "trial_length": 8,
    "click_num": 4,
    "RT": 1064,
    "action": 1,
    "reward": 2.3
  },
  {
    "phase": "TASK",
    "condition": "Cond3",
    "trial_num": 16,
    "trial_length": 8,
    "click_num": 5,
    "RT": 1143,
    "action": 1,
    "reward": 2.8
  },
  {
    "phase": "TASK",
    "condition": "Cond3",
    "trial_num": 16,
    "trial_length": 8,
    "click_num": 6,
    "RT": 1073,
    "action": 1,
    "reward": 2.4
  },
  {
    "phase": "TASK",
    "condition": "Cond3",
    "trial_num": 16,
    "trial_length": 8,
    "click_num": 7,
    "RT": 1823,
    "action": 1,
    "reward": 3.3
  },
  {
    "phase": "TASK",
    "condition": "Cond3",
    "trial_num": 16,
    "trial_length": 8,
    "click_num": 8,
    "RT": 1386,
    "action": 1,
    "reward": 3
  },
  {
    "phase": "TASK",
    "condition": "Cond3",
    "trial_num": 17,
    "trial_length": 5,
    "click_num": 1,
    "RT": 1451,
    "action": 1,
    "reward": 3.4
  },
  {
    "phase": "TASK",
    "condition": "Cond3",
    "trial_num": 17,
    "trial_length": 5,
    "click_num": 2,
    "RT": 2073,
    "action": 1,
    "reward": 4.3
  },
  {
    "phase": "TASK",
    "condition": "Cond3",
    "trial_num": 17,
    "trial_length": 5,
    "click_num": 3,
    "RT": 2680,
    "action": 0,
    "reward": 4.3
  },
  {
    "phase": "TASK",
    "condition": "Cond3",
    "trial_num": 17,
    "trial_length": 5,
    "click_num": 4,
    "RT": 1583,
    "action": 0,
    "reward": 4.3
  },
  {
    "phase": "TASK",
    "condition": "Cond3",
    "trial_num": 17,
    "trial_length": 5,
    "click_num": 5,
    "RT": 1059,
    "action": 0,
    "reward": 4.3
  },
  {
    "phase": "TASK",
    "condition": "Cond3",
    "trial_num": 18,
    "trial_length": 9,
    "click_num": 1,
    "RT": 1414,
    "action": 1,
    "reward": 3.3
  },
  {
    "phase": "TASK",
    "condition": "Cond3",
    "trial_num": 18,
    "trial_length": 9,
    "click_num": 2,
    "RT": 1351,
    "action": 1,
    "reward": 2.7
  },
  {
    "phase": "TASK",
    "condition": "Cond3",
    "trial_num": 18,
    "trial_length": 9,
    "click_num": 3,
    "RT": 1024,
    "action": 1,
    "reward": 3.1
  },
  {
    "phase": "TASK",
    "condition": "Cond3",
    "trial_num": 18,
    "trial_length": 9,
    "click_num": 4,
    "RT": 1128,
    "action": 1,
    "reward": 3.4
  },
  {
    "phase": "TASK",
    "condition": "Cond3",
    "trial_num": 18,
    "trial_length": 9,
    "click_num": 5,
    "RT": 1275,
    "action": 1,
    "reward": 4
  },
  {
    "phase": "TASK",
    "condition": "Cond3",
    "trial_num": 18,
    "trial_length": 9,
    "click_num": 6,
    "RT": 2045,
    "action": 0,
    "reward": 4
  },
  {
    "phase": "TASK",
    "condition": "Cond3",
    "trial_num": 18,
    "trial_length": 9,
    "click_num": 7,
    "RT": 1099,
    "action": 0,
    "reward": 4
  },
  {
    "phase": "TASK",
    "condition": "Cond3",
    "trial_num": 18,
    "trial_length": 9,
    "click_num": 8,
    "RT": 989,
    "action": 0,
    "reward": 4
  },
  {
    "phase": "TASK",
    "condition": "Cond3",
    "trial_num": 18,
    "trial_length": 9,
    "click_num": 9,
    "RT": 1089,
    "action": 0,
    "reward": 4
  },
  {
    "phase": "TASK",
    "condition": "Cond3",
    "trial_num": 19,
    "trial_length": 7,
    "click_num": 1,
    "RT": 2431,
    "action": 1,
    "reward": 2.7
  },
  {
    "phase": "TASK",
    "condition": "Cond3",
    "trial_num": 19,
    "trial_length": 7,
    "click_num": 2,
    "RT": 3287,
    "action": 1,
    "reward": 2.9
  },
  {
    "phase": "TASK",
    "condition": "Cond3",
    "trial_num": 19,
    "trial_length": 7,
    "click_num": 3,
    "RT": 1194,
    "action": 1,
    "reward": 2.1
  },
  {
    "phase": "TASK",
    "condition": "Cond3",
    "trial_num": 19,
    "trial_length": 7,
    "click_num": 4,
    "RT": 1246,
    "action": 1,
    "reward": 4
  },
  {
    "phase": "TASK",
    "condition": "Cond3",
    "trial_num": 19,
    "trial_length": 7,
    "click_num": 5,
    "RT": 1849,
    "action": 0,
    "reward": 4
  },
  {
    "phase": "TASK",
    "condition": "Cond3",
    "trial_num": 19,
    "trial_length": 7,
    "click_num": 6,
    "RT": 1160,
    "action": 0,
    "reward": 4
  },
  {
    "phase": "TASK",
    "condition": "Cond3",
    "trial_num": 19,
    "trial_length": 7,
    "click_num": 7,
    "RT": 1210,
    "action": 0,
    "reward": 4
  },
  {
    "phase": "TASK",
    "condition": "Cond3",
    "trial_num": 20,
    "trial_length": 9,
    "click_num": 1,
    "RT": 1591,
    "action": 1,
    "reward": 3
  },
  {
    "phase": "TASK",
    "condition": "Cond3",
    "trial_num": 20,
    "trial_length": 9,
    "click_num": 2,
    "RT": 3642,
    "action": 1,
    "reward": 2.9
  },
  {
    "phase": "TASK",
    "condition": "Cond3",
    "trial_num": 20,
    "trial_length": 9,
    "click_num": 3,
    "RT": 1470,
    "action": 1,
    "reward": 2.3
  },
  {
    "phase": "TASK",
    "condition": "Cond3",
    "trial_num": 20,
    "trial_length": 9,
    "click_num": 4,
    "RT": 1314,
    "action": 1,
    "reward": 3.8
  },
  {
    "phase": "TASK",
    "condition": "Cond3",
    "trial_num": 20,
    "trial_length": 9,
    "click_num": 5,
    "RT": 2022,
    "action": 1,
    "reward": 2.7
  },
  {
    "phase": "TASK",
    "condition": "Cond3",
    "trial_num": 20,
    "trial_length": 9,
    "click_num": 6,
    "RT": 1040,
    "action": 1,
    "reward": 3.2
  },
  {
    "phase": "TASK",
    "condition": "Cond3",
    "trial_num": 20,
    "trial_length": 9,
    "click_num": 7,
    "RT": 985,
    "action": 1,
    "reward": 1.6
  },
  {
    "phase": "TASK",
    "condition": "Cond3",
    "trial_num": 20,
    "trial_length": 9,
    "click_num": 8,
    "RT": 943,
    "action": 1,
    "reward": 3.3
  },
  {
    "phase": "TASK",
    "condition": "Cond3",
    "trial_num": 20,
    "trial_length": 9,
    "click_num": 9,
    "RT": 1384,
    "action": 1,
    "reward": 3.1
  },
  {
    "phase": "TASK",
    "condition": "Cond3",
    "trial_num": 21,
    "trial_length": 5,
    "click_num": 1,
    "RT": 1560,
    "action": 1,
    "reward": 4
  },
  {
    "phase": "TASK",
    "condition": "Cond3",
    "trial_num": 21,
    "trial_length": 5,
    "click_num": 2,
    "RT": 1978,
    "action": 0,
    "reward": 4
  },
  {
    "phase": "TASK",
    "condition": "Cond3",
    "trial_num": 21,
    "trial_length": 5,
    "click_num": 3,
    "RT": 941,
    "action": 0,
    "reward": 4
  },
  {
    "phase": "TASK",
    "condition": "Cond3",
    "trial_num": 21,
    "trial_length": 5,
    "click_num": 4,
    "RT": 1251,
    "action": 0,
    "reward": 4
  },
  {
    "phase": "TASK",
    "condition": "Cond3",
    "trial_num": 21,
    "trial_length": 5,
    "click_num": 5,
    "RT": 1237,
    "action": 0,
    "reward": 4
  },
  {
    "phase": "TASK",
    "condition": "Cond3",
    "trial_num": 22,
    "trial_length": 5,
    "click_num": 1,
    "RT": 2817,
    "action": 1,
    "reward": 4
  },
  {
    "phase": "TASK",
    "condition": "Cond3",
    "trial_num": 22,
    "trial_length": 5,
    "click_num": 2,
    "RT": 1727,
    "action": 0,
    "reward": 4
  },
  {
    "phase": "TASK",
    "condition": "Cond3",
    "trial_num": 22,
    "trial_length": 5,
    "click_num": 3,
    "RT": 1380,
    "action": 0,
    "reward": 4
  },
  {
    "phase": "TASK",
    "condition": "Cond3",
    "trial_num": 22,
    "trial_length": 5,
    "click_num": 4,
    "RT": 1125,
    "action": 0,
    "reward": 4
  },
  {
    "phase": "TASK",
    "condition": "Cond3",
    "trial_num": 22,
    "trial_length": 5,
    "click_num": 5,
    "RT": 1259,
    "action": 0,
    "reward": 4
  },
  {
    "phase": "TASK",
    "condition": "Cond3",
    "trial_num": 23,
    "trial_length": 8,
    "click_num": 1,
    "RT": 1697,
    "action": 1,
    "reward": 3
  },
  {
    "phase": "TASK",
    "condition": "Cond3",
    "trial_num": 23,
    "trial_length": 8,
    "click_num": 2,
    "RT": 1933,
    "action": 1,
    "reward": 3.5
  },
  {
    "phase": "TASK",
    "condition": "Cond3",
    "trial_num": 23,
    "trial_length": 8,
    "click_num": 3,
    "RT": 1275,
    "action": 1,
    "reward": 2.9
  },
  {
    "phase": "TASK",
    "condition": "Cond3",
    "trial_num": 23,
    "trial_length": 8,
    "click_num": 4,
    "RT": 1301,
    "action": 1,
    "reward": 3.5
  },
  {
    "phase": "TASK",
    "condition": "Cond3",
    "trial_num": 23,
    "trial_length": 8,
    "click_num": 5,
    "RT": 1336,
    "action": 1,
    "reward": 3.7
  },
  {
    "phase": "TASK",
    "condition": "Cond3",
    "trial_num": 23,
    "trial_length": 8,
    "click_num": 6,
    "RT": 1491,
    "action": 0,
    "reward": 3.7
  },
  {
    "phase": "TASK",
    "condition": "Cond3",
    "trial_num": 23,
    "trial_length": 8,
    "click_num": 7,
    "RT": 951,
    "action": 0,
    "reward": 3.7
  },
  {
    "phase": "TASK",
    "condition": "Cond3",
    "trial_num": 23,
    "trial_length": 8,
    "click_num": 8,
    "RT": 1220,
    "action": 0,
    "reward": 3.7
  },
  {
    "phase": "TASK",
    "condition": "Cond3",
    "trial_num": 24,
    "trial_length": 6,
    "click_num": 1,
    "RT": 1370,
    "action": 1,
    "reward": 3
  },
  {
    "phase": "TASK",
    "condition": "Cond3",
    "trial_num": 24,
    "trial_length": 6,
    "click_num": 2,
    "RT": 1449,
    "action": 1,
    "reward": 3.3
  },
  {
    "phase": "TASK",
    "condition": "Cond3",
    "trial_num": 24,
    "trial_length": 6,
    "click_num": 3,
    "RT": 1407,
    "action": 1,
    "reward": 2.7
  },
  {
    "phase": "TASK",
    "condition": "Cond3",
    "trial_num": 24,
    "trial_length": 6,
    "click_num": 4,
    "RT": 1228,
    "action": 1,
    "reward": 2.3
  },
  {
    "phase": "TASK",
    "condition": "Cond3",
    "trial_num": 24,
    "trial_length": 6,
    "click_num": 5,
    "RT": 2317,
    "action": 1,
    "reward": 2.6
  },
  {
    "phase": "TASK",
    "condition": "Cond3",
    "trial_num": 24,
    "trial_length": 6,
    "click_num": 6,
    "RT": 1384,
    "action": 1,
    "reward": 2.9
  },
  {
    "phase": "TASK",
    "condition": "Cond3",
    "trial_num": 25,
    "trial_length": 7,
    "click_num": 1,
    "RT": 1895,
    "action": 1,
    "reward": 2.6
  },
  {
    "phase": "TASK",
    "condition": "Cond3",
    "trial_num": 25,
    "trial_length": 7,
    "click_num": 2,
    "RT": 1621,
    "action": 1,
    "reward": 3.1
  },
  {
    "phase": "TASK",
    "condition": "Cond3",
    "trial_num": 25,
    "trial_length": 7,
    "click_num": 3,
    "RT": 1242,
    "action": 1,
    "reward": 3.2
  },
  {
    "phase": "TASK",
    "condition": "Cond3",
    "trial_num": 25,
    "trial_length": 7,
    "click_num": 4,
    "RT": 1293,
    "action": 1,
    "reward": 2.9
  },
  {
    "phase": "TASK",
    "condition": "Cond3",
    "trial_num": 25,
    "trial_length": 7,
    "click_num": 5,
    "RT": 1417,
    "action": 1,
    "reward": 3
  },
  {
    "phase": "TASK",
    "condition": "Cond3",
    "trial_num": 25,
    "trial_length": 7,
    "click_num": 6,
    "RT": 1184,
    "action": 1,
    "reward": 4.6
  },
  {
    "phase": "TASK",
    "condition": "Cond3",
    "trial_num": 25,
    "trial_length": 7,
    "click_num": 7,
    "RT": 1785,
    "action": 0,
    "reward": 4.6
  },
  {
    "phase": "TASK",
    "condition": "Cond3",
    "trial_num": 26,
    "trial_length": 7,
    "click_num": 1,
    "RT": 1558,
    "action": 1,
    "reward": 2.2
  },
  {
    "phase": "TASK",
    "condition": "Cond3",
    "trial_num": 26,
    "trial_length": 7,
    "click_num": 2,
    "RT": 1459,
    "action": 1,
    "reward": 3
  },
  {
    "phase": "TASK",
    "condition": "Cond3",
    "trial_num": 26,
    "trial_length": 7,
    "click_num": 3,
    "RT": 1925,
    "action": 1,
    "reward": 2.5
  },
  {
    "phase": "TASK",
    "condition": "Cond3",
    "trial_num": 26,
    "trial_length": 7,
    "click_num": 4,
    "RT": 1400,
    "action": 1,
    "reward": 3.6
  },
  {
    "phase": "TASK",
    "condition": "Cond3",
    "trial_num": 26,
    "trial_length": 7,
    "click_num": 5,
    "RT": 3524,
    "action": 0,
    "reward": 3.6
  },
  {
    "phase": "TASK",
    "condition": "Cond3",
    "trial_num": 26,
    "trial_length": 7,
    "click_num": 6,
    "RT": 2501,
    "action": 1,
    "reward": 2.3
  },
  {
    "phase": "TASK",
    "condition": "Cond3",
    "trial_num": 26,
    "trial_length": 7,
    "click_num": 7,
    "RT": 1658,
    "action": 1,
    "reward": 2.7
  },
  {
    "phase": "TASK",
    "condition": "Cond3",
    "trial_num": 27,
    "trial_length": 6,
    "click_num": 1,
    "RT": 1319,
    "action": 1,
    "reward": 2.4
  },
  {
    "phase": "TASK",
    "condition": "Cond3",
    "trial_num": 27,
    "trial_length": 6,
    "click_num": 2,
    "RT": 1427,
    "action": 1,
    "reward": 3.3
  },
  {
    "phase": "TASK",
    "condition": "Cond3",
    "trial_num": 27,
    "trial_length": 6,
    "click_num": 3,
    "RT": 1285,
    "action": 1,
    "reward": 3.5
  },
  {
    "phase": "TASK",
    "condition": "Cond3",
    "trial_num": 27,
    "trial_length": 6,
    "click_num": 4,
    "RT": 1664,
    "action": 1,
    "reward": 2.4
  },
  {
    "phase": "TASK",
    "condition": "Cond3",
    "trial_num": 27,
    "trial_length": 6,
    "click_num": 5,
    "RT": 1136,
    "action": 1,
    "reward": 3.9
  },
  {
    "phase": "TASK",
    "condition": "Cond3",
    "trial_num": 27,
    "trial_length": 6,
    "click_num": 6,
    "RT": 1680,
    "action": 0,
    "reward": 3.9
  },
  {
    "phase": "TASK",
    "condition": "Cond3",
    "trial_num": 28,
    "trial_length": 10,
    "click_num": 1,
    "RT": 2489,
    "action": 1,
    "reward": 3.5
  },
  {
    "phase": "TASK",
    "condition": "Cond3",
    "trial_num": 28,
    "trial_length": 10,
    "click_num": 2,
    "RT": 2255,
    "action": 1,
    "reward": 2.3
  },
  {
    "phase": "TASK",
    "condition": "Cond3",
    "trial_num": 28,
    "trial_length": 10,
    "click_num": 3,
    "RT": 1202,
    "action": 1,
    "reward": 2.8
  },
  {
    "phase": "TASK",
    "condition": "Cond3",
    "trial_num": 28,
    "trial_length": 10,
    "click_num": 4,
    "RT": 1215,
    "action": 1,
    "reward": 3.4
  },
  {
    "phase": "TASK",
    "condition": "Cond3",
    "trial_num": 28,
    "trial_length": 10,
    "click_num": 5,
    "RT": 1223,
    "action": 1,
    "reward": 3.1
  },
  {
    "phase": "TASK",
    "condition": "Cond3",
    "trial_num": 28,
    "trial_length": 10,
    "click_num": 6,
    "RT": 1671,
    "action": 1,
    "reward": 3.6
  },
  {
    "phase": "TASK",
    "condition": "Cond3",
    "trial_num": 28,
    "trial_length": 10,
    "click_num": 7,
    "RT": 2281,
    "action": 0,
    "reward": 3.6
  },
  {
    "phase": "TASK",
    "condition": "Cond3",
    "trial_num": 28,
    "trial_length": 10,
    "click_num": 8,
    "RT": 1272,
    "action": 0,
    "reward": 3.6
  },
  {
    "phase": "TASK",
    "condition": "Cond3",
    "trial_num": 28,
    "trial_length": 10,
    "click_num": 9,
    "RT": 979,
    "action": 0,
    "reward": 3.6
  },
  {
    "phase": "TASK",
    "condition": "Cond3",
    "trial_num": 28,
    "trial_length": 10,
    "click_num": 10,
    "RT": 983,
    "action": 0,
    "reward": 3.6
  },
  {
    "phase": "TASK",
    "condition": "Cond3",
    "trial_num": 29,
    "trial_length": 9,
    "click_num": 1,
    "RT": 2384,
    "action": 1,
    "reward": 2.5
  },
  {
    "phase": "TASK",
    "condition": "Cond3",
    "trial_num": 29,
    "trial_length": 9,
    "click_num": 2,
    "RT": 2342,
    "action": 1,
    "reward": 2.9
  },
  {
    "phase": "TASK",
    "condition": "Cond3",
    "trial_num": 29,
    "trial_length": 9,
    "click_num": 3,
    "RT": 1455,
    "action": 1,
    "reward": 3.1
  },
  {
    "phase": "TASK",
    "condition": "Cond3",
    "trial_num": 29,
    "trial_length": 9,
    "click_num": 4,
    "RT": 1081,
    "action": 1,
    "reward": 2.5
  },
  {
    "phase": "TASK",
    "condition": "Cond3",
    "trial_num": 29,
    "trial_length": 9,
    "click_num": 5,
    "RT": 1175,
    "action": 1,
    "reward": 2
  },
  {
    "phase": "TASK",
    "condition": "Cond3",
    "trial_num": 29,
    "trial_length": 9,
    "click_num": 6,
    "RT": 1356,
    "action": 1,
    "reward": 3.5
  },
  {
    "phase": "TASK",
    "condition": "Cond3",
    "trial_num": 29,
    "trial_length": 9,
    "click_num": 7,
    "RT": 4367,
    "action": 0,
    "reward": 3.5
  },
  {
    "phase": "TASK",
    "condition": "Cond3",
    "trial_num": 29,
    "trial_length": 9,
    "click_num": 8,
    "RT": 1374,
    "action": 0,
    "reward": 3.5
  },
  {
    "phase": "TASK",
    "condition": "Cond3",
    "trial_num": 29,
    "trial_length": 9,
    "click_num": 9,
    "RT": 3023,
    "action": 1,
    "reward": 3.5
  },
  {
    "phase": "TASK",
    "condition": "Cond3",
    "trial_num": 30,
    "trial_length": 9,
    "click_num": 1,
    "RT": 2501,
    "action": 1,
    "reward": 3.3
  },
  {
    "phase": "TASK",
    "condition": "Cond3",
    "trial_num": 30,
    "trial_length": 9,
    "click_num": 2,
    "RT": 2775,
    "action": 1,
    "reward": 3.8
  },
  {
    "phase": "TASK",
    "condition": "Cond3",
    "trial_num": 30,
    "trial_length": 9,
    "click_num": 3,
    "RT": 2384,
    "action": 0,
    "reward": 3.8
  },
  {
    "phase": "TASK",
    "condition": "Cond3",
    "trial_num": 30,
    "trial_length": 9,
    "click_num": 4,
    "RT": 1336,
    "action": 1,
    "reward": 2.9
  },
  {
    "phase": "TASK",
    "condition": "Cond3",
    "trial_num": 30,
    "trial_length": 9,
    "click_num": 5,
    "RT": 3584,
    "action": 0,
    "reward": 3.8
  },
  {
    "phase": "TASK",
    "condition": "Cond3",
    "trial_num": 30,
    "trial_length": 9,
    "click_num": 6,
    "RT": 3609,
    "action": 1,
    "reward": 4.3
  },
  {
    "phase": "TASK",
    "condition": "Cond3",
    "trial_num": 30,
    "trial_length": 9,
    "click_num": 7,
    "RT": 2559,
    "action": 0,
    "reward": 4.3
  },
  {
    "phase": "TASK",
    "condition": "Cond3",
    "trial_num": 30,
    "trial_length": 9,
    "click_num": 8,
    "RT": 960,
    "action": 0,
    "reward": 4.3
  },
  {
    "phase": "TASK",
    "condition": "Cond3",
    "trial_num": 30,
    "trial_length": 9,
    "click_num": 9,
    "RT": 1032,
    "action": 0,
    "reward": 4.3
  },
  {
    "phase": "TASK",
    "condition": "Cond3",
    "trial_num": 31,
    "trial_length": 8,
    "click_num": 1,
    "RT": 3007,
    "action": 1,
    "reward": 3.6
  },
  {
    "phase": "TASK",
    "condition": "Cond3",
    "trial_num": 31,
    "trial_length": 8,
    "click_num": 2,
    "RT": 3240,
    "action": 1,
    "reward": 3.2
  },
  {
    "phase": "TASK",
    "condition": "Cond3",
    "trial_num": 31,
    "trial_length": 8,
    "click_num": 3,
    "RT": 1584,
    "action": 1,
    "reward": 3.4
  },
  {
    "phase": "TASK",
    "condition": "Cond3",
    "trial_num": 31,
    "trial_length": 8,
    "click_num": 4,
    "RT": 1552,
    "action": 1,
    "reward": 3.3
  },
  {
    "phase": "TASK",
    "condition": "Cond3",
    "trial_num": 31,
    "trial_length": 8,
    "click_num": 5,
    "RT": 1432,
    "action": 0,
    "reward": 3.6
  },
  {
    "phase": "TASK",
    "condition": "Cond3",
    "trial_num": 31,
    "trial_length": 8,
    "click_num": 6,
    "RT": 1520,
    "action": 1,
    "reward": 3.2
  },
  {
    "phase": "TASK",
    "condition": "Cond3",
    "trial_num": 31,
    "trial_length": 8,
    "click_num": 7,
    "RT": 1848,
    "action": 1,
    "reward": 3.8
  },
  {
    "phase": "TASK",
    "condition": "Cond3",
    "trial_num": 31,
    "trial_length": 8,
    "click_num": 8,
    "RT": 3360,
    "action": 0,
    "reward": 3.8
  },
  {
    "phase": "TASK",
    "condition": "Cond3",
    "trial_num": 32,
    "trial_length": 9,
    "click_num": 1,
    "RT": 1833,
    "action": 1,
    "reward": 3.3
  },
  {
    "phase": "TASK",
    "condition": "Cond3",
    "trial_num": 32,
    "trial_length": 9,
    "click_num": 2,
    "RT": 1815,
    "action": 1,
    "reward": 3.3
  },
  {
    "phase": "TASK",
    "condition": "Cond3",
    "trial_num": 32,
    "trial_length": 9,
    "click_num": 3,
    "RT": 1354,
    "action": 1,
    "reward": 3.3
  },
  {
    "phase": "TASK",
    "condition": "Cond3",
    "trial_num": 32,
    "trial_length": 9,
    "click_num": 4,
    "RT": 1326,
    "action": 1,
    "reward": 2.9
  },
  {
    "phase": "TASK",
    "condition": "Cond3",
    "trial_num": 32,
    "trial_length": 9,
    "click_num": 5,
    "RT": 1415,
    "action": 1,
    "reward": 3.6
  },
  {
    "phase": "TASK",
    "condition": "Cond3",
    "trial_num": 32,
    "trial_length": 9,
    "click_num": 6,
    "RT": 1656,
    "action": 1,
    "reward": 3.2
  },
  {
    "phase": "TASK",
    "condition": "Cond3",
    "trial_num": 32,
    "trial_length": 9,
    "click_num": 7,
    "RT": 2665,
    "action": 0,
    "reward": 3.6
  },
  {
    "phase": "TASK",
    "condition": "Cond3",
    "trial_num": 32,
    "trial_length": 9,
    "click_num": 8,
    "RT": 1256,
    "action": 1,
    "reward": 3.4
  },
  {
    "phase": "TASK",
    "condition": "Cond3",
    "trial_num": 32,
    "trial_length": 9,
    "click_num": 9,
    "RT": 3542,
    "action": 0,
    "reward": 3.6
  },
  {
    "phase": "TASK",
    "condition": "Cond3",
    "trial_num": 33,
    "trial_length": 7,
    "click_num": 1,
    "RT": 1413,
    "action": 1,
    "reward": 2.7
  },
  {
    "phase": "TASK",
    "condition": "Cond3",
    "trial_num": 33,
    "trial_length": 7,
    "click_num": 2,
    "RT": 1463,
    "action": 1,
    "reward": 3.8
  },
  {
    "phase": "TASK",
    "condition": "Cond3",
    "trial_num": 33,
    "trial_length": 7,
    "click_num": 3,
    "RT": 1684,
    "action": 1,
    "reward": 2.5
  },
  {
    "phase": "TASK",
    "condition": "Cond3",
    "trial_num": 33,
    "trial_length": 7,
    "click_num": 4,
    "RT": 1309,
    "action": 1,
    "reward": 2.3
  },
  {
    "phase": "TASK",
    "condition": "Cond3",
    "trial_num": 33,
    "trial_length": 7,
    "click_num": 5,
    "RT": 1379,
    "action": 1,
    "reward": 2.6
  },
  {
    "phase": "TASK",
    "condition": "Cond3",
    "trial_num": 33,
    "trial_length": 7,
    "click_num": 6,
    "RT": 1532,
    "action": 0,
    "reward": 3.8
  },
  {
    "phase": "TASK",
    "condition": "Cond3",
    "trial_num": 33,
    "trial_length": 7,
    "click_num": 7,
    "RT": 1137,
    "action": 0,
    "reward": 3.8
  },
  {
    "phase": "TASK",
    "condition": "Cond3",
    "trial_num": 34,
    "trial_length": 9,
    "click_num": 1,
    "RT": 1542,
    "action": 1,
    "reward": 2.3
  },
  {
    "phase": "TASK",
    "condition": "Cond3",
    "trial_num": 34,
    "trial_length": 9,
    "click_num": 2,
    "RT": 2048,
    "action": 1,
    "reward": 3.1
  },
  {
    "phase": "TASK",
    "condition": "Cond3",
    "trial_num": 34,
    "trial_length": 9,
    "click_num": 3,
    "RT": 1369,
    "action": 1,
    "reward": 2.5
  },
  {
    "phase": "TASK",
    "condition": "Cond3",
    "trial_num": 34,
    "trial_length": 9,
    "click_num": 4,
    "RT": 1247,
    "action": 1,
    "reward": 2.4
  },
  {
    "phase": "TASK",
    "condition": "Cond3",
    "trial_num": 34,
    "trial_length": 9,
    "click_num": 5,
    "RT": 1483,
    "action": 1,
    "reward": 2.9
  },
  {
    "phase": "TASK",
    "condition": "Cond3",
    "trial_num": 34,
    "trial_length": 9,
    "click_num": 6,
    "RT": 1256,
    "action": 1,
    "reward": 2.9
  },
  {
    "phase": "TASK",
    "condition": "Cond3",
    "trial_num": 34,
    "trial_length": 9,
    "click_num": 7,
    "RT": 1843,
    "action": 1,
    "reward": 3.3
  },
  {
    "phase": "TASK",
    "condition": "Cond3",
    "trial_num": 34,
    "trial_length": 9,
    "click_num": 8,
    "RT": 3659,
    "action": 1,
    "reward": 2.9
  },
  {
    "phase": "TASK",
    "condition": "Cond3",
    "trial_num": 34,
    "trial_length": 9,
    "click_num": 9,
    "RT": 1695,
    "action": 0,
    "reward": 3.3
  },
  {
    "phase": "TASK",
    "condition": "Cond3",
    "trial_num": 35,
    "trial_length": 6,
    "click_num": 1,
    "RT": 3983,
    "action": 1,
    "reward": 2.9
  },
  {
    "phase": "TASK",
    "condition": "Cond3",
    "trial_num": 35,
    "trial_length": 6,
    "click_num": 2,
    "RT": 1945,
    "action": 1,
    "reward": 3.9
  },
  {
    "phase": "TASK",
    "condition": "Cond3",
    "trial_num": 35,
    "trial_length": 6,
    "click_num": 3,
    "RT": 2020,
    "action": 0,
    "reward": 3.9
  },
  {
    "phase": "TASK",
    "condition": "Cond3",
    "trial_num": 35,
    "trial_length": 6,
    "click_num": 4,
    "RT": 1457,
    "action": 1,
    "reward": 3.1
  },
  {
    "phase": "TASK",
    "condition": "Cond3",
    "trial_num": 35,
    "trial_length": 6,
    "click_num": 5,
    "RT": 1488,
    "action": 1,
    "reward": 3.7
  },
  {
    "phase": "TASK",
    "condition": "Cond3",
    "trial_num": 35,
    "trial_length": 6,
    "click_num": 6,
    "RT": 2160,
    "action": 0,
    "reward": 3.9
  },
  {
    "phase": "TASK",
    "condition": "Cond3",
    "trial_num": 36,
    "trial_length": 8,
    "click_num": 1,
    "RT": 1735,
    "action": 1,
    "reward": 1.9
  },
  {
    "phase": "TASK",
    "condition": "Cond3",
    "trial_num": 36,
    "trial_length": 8,
    "click_num": 2,
    "RT": 4848,
    "action": 1,
    "reward": 4.3
  },
  {
    "phase": "TASK",
    "condition": "Cond3",
    "trial_num": 36,
    "trial_length": 8,
    "click_num": 3,
    "RT": 2632,
    "action": 0,
    "reward": 4.3
  },
  {
    "phase": "TASK",
    "condition": "Cond3",
    "trial_num": 36,
    "trial_length": 8,
    "click_num": 4,
    "RT": 1727,
    "action": 1,
    "reward": 2.5
  },
  {
    "phase": "TASK",
    "condition": "Cond3",
    "trial_num": 36,
    "trial_length": 8,
    "click_num": 5,
    "RT": 3264,
    "action": 1,
    "reward": 2.8
  },
  {
    "phase": "TASK",
    "condition": "Cond3",
    "trial_num": 36,
    "trial_length": 8,
    "click_num": 6,
    "RT": 1220,
    "action": 1,
    "reward": 2.7
  },
  {
    "phase": "TASK",
    "condition": "Cond3",
    "trial_num": 36,
    "trial_length": 8,
    "click_num": 7,
    "RT": 1797,
    "action": 0,
    "reward": 4.3
  },
  {
    "phase": "TASK",
    "condition": "Cond3",
    "trial_num": 36,
    "trial_length": 8,
    "click_num": 8,
    "RT": 1431,
    "action": 0,
    "reward": 4.3
  },
  {
    "phase": "TASK",
    "condition": "Cond3",
    "trial_num": 37,
    "trial_length": 10,
    "click_num": 1,
    "RT": 3237,
    "action": 1,
    "reward": 3.2
  },
  {
    "phase": "TASK",
    "condition": "Cond3",
    "trial_num": 37,
    "trial_length": 10,
    "click_num": 2,
    "RT": 1641,
    "action": 1,
    "reward": 2.8
  },
  {
    "phase": "TASK",
    "condition": "Cond3",
    "trial_num": 37,
    "trial_length": 10,
    "click_num": 3,
    "RT": 1215,
    "action": 1,
    "reward": 4.2
  },
  {
    "phase": "TASK",
    "condition": "Cond3",
    "trial_num": 37,
    "trial_length": 10,
    "click_num": 4,
    "RT": 2736,
    "action": 0,
    "reward": 4.2
  },
  {
    "phase": "TASK",
    "condition": "Cond3",
    "trial_num": 37,
    "trial_length": 10,
    "click_num": 5,
    "RT": 1296,
    "action": 1,
    "reward": 2.4
  },
  {
    "phase": "TASK",
    "condition": "Cond3",
    "trial_num": 37,
    "trial_length": 10,
    "click_num": 6,
    "RT": 1449,
    "action": 1,
    "reward": 1.9
  },
  {
    "phase": "TASK",
    "condition": "Cond3",
    "trial_num": 37,
    "trial_length": 10,
    "click_num": 7,
    "RT": 1224,
    "action": 0,
    "reward": 4.2
  },
  {
    "phase": "TASK",
    "condition": "Cond3",
    "trial_num": 37,
    "trial_length": 10,
    "click_num": 8,
    "RT": 1015,
    "action": 0,
    "reward": 4.2
  },
  {
    "phase": "TASK",
    "condition": "Cond3",
    "trial_num": 37,
    "trial_length": 10,
    "click_num": 9,
    "RT": 1000,
    "action": 0,
    "reward": 4.2
  },
  {
    "phase": "TASK",
    "condition": "Cond3",
    "trial_num": 37,
    "trial_length": 10,
    "click_num": 10,
    "RT": 1128,
    "action": 0,
    "reward": 4.2
  },
  {
    "phase": "TASK",
    "condition": "Cond3",
    "trial_num": 38,
    "trial_length": 6,
    "click_num": 1,
    "RT": 2463,
    "action": 1,
    "reward": 4.1
  },
  {
    "phase": "TASK",
    "condition": "Cond3",
    "trial_num": 38,
    "trial_length": 6,
    "click_num": 2,
    "RT": 2273,
    "action": 1,
    "reward": 4.1
  },
  {
    "phase": "TASK",
    "condition": "Cond3",
    "trial_num": 38,
    "trial_length": 6,
    "click_num": 3,
    "RT": 4107,
    "action": 0,
    "reward": 4.1
  },
  {
    "phase": "TASK",
    "condition": "Cond3",
    "trial_num": 38,
    "trial_length": 6,
    "click_num": 4,
    "RT": 1925,
    "action": 1,
    "reward": 2.3
  },
  {
    "phase": "TASK",
    "condition": "Cond3",
    "trial_num": 38,
    "trial_length": 6,
    "click_num": 5,
    "RT": 1681,
    "action": 0,
    "reward": 4.1
  },
  {
    "phase": "TASK",
    "condition": "Cond3",
    "trial_num": 38,
    "trial_length": 6,
    "click_num": 6,
    "RT": 1160,
    "action": 0,
    "reward": 4.1
  },
  {
    "phase": "TASK",
    "condition": "Cond3",
    "trial_num": 39,
    "trial_length": 5,
    "click_num": 1,
    "RT": 1937,
    "action": 1,
    "reward": 2.5
  },
  {
    "phase": "TASK",
    "condition": "Cond3",
    "trial_num": 39,
    "trial_length": 5,
    "click_num": 2,
    "RT": 2397,
    "action": 1,
    "reward": 2.7
  },
  {
    "phase": "TASK",
    "condition": "Cond3",
    "trial_num": 39,
    "trial_length": 5,
    "click_num": 3,
    "RT": 1359,
    "action": 1,
    "reward": 3
  },
  {
    "phase": "TASK",
    "condition": "Cond3",
    "trial_num": 39,
    "trial_length": 5,
    "click_num": 4,
    "RT": 1457,
    "action": 1,
    "reward": 3.3
  },
  {
    "phase": "TASK",
    "condition": "Cond3",
    "trial_num": 39,
    "trial_length": 5,
    "click_num": 5,
    "RT": 2007,
    "action": 0,
    "reward": 3.3
  },
  {
    "phase": "TASK",
    "condition": "Cond3",
    "trial_num": 40,
    "trial_length": 7,
    "click_num": 1,
    "RT": 1770,
    "action": 1,
    "reward": 3
  },
  {
    "phase": "TASK",
    "condition": "Cond3",
    "trial_num": 40,
    "trial_length": 7,
    "click_num": 2,
    "RT": 2825,
    "action": 1,
    "reward": 3.3
  },
  {
    "phase": "TASK",
    "condition": "Cond3",
    "trial_num": 40,
    "trial_length": 7,
    "click_num": 3,
    "RT": 2254,
    "action": 1,
    "reward": 2.8
  },
  {
    "phase": "TASK",
    "condition": "Cond3",
    "trial_num": 40,
    "trial_length": 7,
    "click_num": 4,
    "RT": 1231,
    "action": 1,
    "reward": 3.1
  },
  {
    "phase": "TASK",
    "condition": "Cond3",
    "trial_num": 40,
    "trial_length": 7,
    "click_num": 5,
    "RT": 1161,
    "action": 1,
    "reward": 3.6
  },
  {
    "phase": "TASK",
    "condition": "Cond3",
    "trial_num": 40,
    "trial_length": 7,
    "click_num": 6,
    "RT": 1648,
    "action": 1,
    "reward": 2.5
  },
  {
    "phase": "TASK",
    "condition": "Cond3",
    "trial_num": 40,
    "trial_length": 7,
    "click_num": 7,
    "RT": 1279,
    "action": 0,
    "reward": 3.6
  },
  {
    "phase": "TASK",
    "condition": "Cond3",
    "trial_num": 41,
    "trial_length": 10,
    "click_num": 1,
    "RT": 1521,
    "action": 1,
    "reward": 3.5
  },
  {
    "phase": "TASK",
    "condition": "Cond3",
    "trial_num": 41,
    "trial_length": 10,
    "click_num": 2,
    "RT": 1846,
    "action": 1,
    "reward": 2.8
  },
  {
    "phase": "TASK",
    "condition": "Cond3",
    "trial_num": 41,
    "trial_length": 10,
    "click_num": 3,
    "RT": 1815,
    "action": 1,
    "reward": 3.1
  },
  {
    "phase": "TASK",
    "condition": "Cond3",
    "trial_num": 41,
    "trial_length": 10,
    "click_num": 4,
    "RT": 1289,
    "action": 1,
    "reward": 2.3
  },
  {
    "phase": "TASK",
    "condition": "Cond3",
    "trial_num": 41,
    "trial_length": 10,
    "click_num": 5,
    "RT": 1335,
    "action": 1,
    "reward": 3.1
  },
  {
    "phase": "TASK",
    "condition": "Cond3",
    "trial_num": 41,
    "trial_length": 10,
    "click_num": 6,
    "RT": 1152,
    "action": 1,
    "reward": 1.9
  },
  {
    "phase": "TASK",
    "condition": "Cond3",
    "trial_num": 41,
    "trial_length": 10,
    "click_num": 7,
    "RT": 1305,
    "action": 1,
    "reward": 3.7
  },
  {
    "phase": "TASK",
    "condition": "Cond3",
    "trial_num": 41,
    "trial_length": 10,
    "click_num": 8,
    "RT": 1656,
    "action": 1,
    "reward": 3.2
  },
  {
    "phase": "TASK",
    "condition": "Cond3",
    "trial_num": 41,
    "trial_length": 10,
    "click_num": 9,
    "RT": 1815,
    "action": 0,
    "reward": 3.7
  },
  {
    "phase": "TASK",
    "condition": "Cond3",
    "trial_num": 41,
    "trial_length": 10,
    "click_num": 10,
    "RT": 1024,
    "action": 0,
    "reward": 3.7
  },
  {
    "phase": "TASK",
    "condition": "Cond3",
    "trial_num": 42,
    "trial_length": 5,
    "click_num": 1,
    "RT": 2008,
    "action": 1,
    "reward": 2.8
  },
  {
    "phase": "TASK",
    "condition": "Cond3",
    "trial_num": 42,
    "trial_length": 5,
    "click_num": 2,
    "RT": 1591,
    "action": 1,
    "reward": 3.3
  },
  {
    "phase": "TASK",
    "condition": "Cond3",
    "trial_num": 42,
    "trial_length": 5,
    "click_num": 3,
    "RT": 1016,
    "action": 1,
    "reward": 3.7
  },
  {
    "phase": "TASK",
    "condition": "Cond3",
    "trial_num": 42,
    "trial_length": 5,
    "click_num": 4,
    "RT": 1304,
    "action": 1,
    "reward": 3.2
  },
  {
    "phase": "TASK",
    "condition": "Cond3",
    "trial_num": 42,
    "trial_length": 5,
    "click_num": 5,
    "RT": 1212,
    "action": 0,
    "reward": 3.7
  },
  {
    "phase": "TASK",
    "condition": "Cond3",
    "trial_num": 43,
    "trial_length": 8,
    "click_num": 1,
    "RT": 1824,
    "action": 1,
    "reward": 2.8
  },
  {
    "phase": "TASK",
    "condition": "Cond3",
    "trial_num": 43,
    "trial_length": 8,
    "click_num": 2,
    "RT": 1238,
    "action": 1,
    "reward": 2.5
  },
  {
    "phase": "TASK",
    "condition": "Cond3",
    "trial_num": 43,
    "trial_length": 8,
    "click_num": 3,
    "RT": 1256,
    "action": 1,
    "reward": 3.1
  },
  {
    "phase": "TASK",
    "condition": "Cond3",
    "trial_num": 43,
    "trial_length": 8,
    "click_num": 4,
    "RT": 1279,
    "action": 1,
    "reward": 2.2
  },
  {
    "phase": "TASK",
    "condition": "Cond3",
    "trial_num": 43,
    "trial_length": 8,
    "click_num": 5,
    "RT": 1152,
    "action": 1,
    "reward": 3.6
  },
  {
    "phase": "TASK",
    "condition": "Cond3",
    "trial_num": 43,
    "trial_length": 8,
    "click_num": 6,
    "RT": 1216,
    "action": 1,
    "reward": 2.9
  },
  {
    "phase": "TASK",
    "condition": "Cond3",
    "trial_num": 43,
    "trial_length": 8,
    "click_num": 7,
    "RT": 2137,
    "action": 0,
    "reward": 3.6
  },
  {
    "phase": "TASK",
    "condition": "Cond3",
    "trial_num": 43,
    "trial_length": 8,
    "click_num": 8,
    "RT": 1096,
    "action": 0,
    "reward": 3.6
  },
  {
    "phase": "TASK",
    "condition": "Cond3",
    "trial_num": 44,
    "trial_length": 10,
    "click_num": 1,
    "RT": 1653,
    "action": 1,
    "reward": 3.3
  },
  {
    "phase": "TASK",
    "condition": "Cond3",
    "trial_num": 44,
    "trial_length": 10,
    "click_num": 2,
    "RT": 1594,
    "action": 1,
    "reward": 2.9
  },
  {
    "phase": "TASK",
    "condition": "Cond3",
    "trial_num": 44,
    "trial_length": 10,
    "click_num": 3,
    "RT": 1287,
    "action": 1,
    "reward": 3.2
  },
  {
    "phase": "TASK",
    "condition": "Cond3",
    "trial_num": 44,
    "trial_length": 10,
    "click_num": 4,
    "RT": 1072,
    "action": 1,
    "reward": 2.2
  },
  {
    "phase": "TASK",
    "condition": "Cond3",
    "trial_num": 44,
    "trial_length": 10,
    "click_num": 5,
    "RT": 1004,
    "action": 1,
    "reward": 2.7
  },
  {
    "phase": "TASK",
    "condition": "Cond3",
    "trial_num": 44,
    "trial_length": 10,
    "click_num": 6,
    "RT": 1229,
    "action": 1,
    "reward": 3.6
  },
  {
    "phase": "TASK",
    "condition": "Cond3",
    "trial_num": 44,
    "trial_length": 10,
    "click_num": 7,
    "RT": 1207,
    "action": 1,
    "reward": 4.1
  },
  {
    "phase": "TASK",
    "condition": "Cond3",
    "trial_num": 44,
    "trial_length": 10,
    "click_num": 8,
    "RT": 2136,
    "action": 0,
    "reward": 4.1
  },
  {
    "phase": "TASK",
    "condition": "Cond3",
    "trial_num": 44,
    "trial_length": 10,
    "click_num": 9,
    "RT": 1121,
    "action": 0,
    "reward": 4.1
  },
  {
    "phase": "TASK",
    "condition": "Cond3",
    "trial_num": 44,
    "trial_length": 10,
    "click_num": 10,
    "RT": 1287,
    "action": 0,
    "reward": 4.1
  },
  {
    "phase": "TASK",
    "condition": "Cond3",
    "trial_num": 45,
    "trial_length": 7,
    "click_num": 1,
    "RT": 2661,
    "action": 1,
    "reward": 2.2
  },
  {
    "phase": "TASK",
    "condition": "Cond3",
    "trial_num": 45,
    "trial_length": 7,
    "click_num": 2,
    "RT": 1655,
    "action": 1,
    "reward": 3.4
  },
  {
    "phase": "TASK",
    "condition": "Cond3",
    "trial_num": 45,
    "trial_length": 7,
    "click_num": 3,
    "RT": 2067,
    "action": 1,
    "reward": 2.6
  },
  {
    "phase": "TASK",
    "condition": "Cond3",
    "trial_num": 45,
    "trial_length": 7,
    "click_num": 4,
    "RT": 1357,
    "action": 1,
    "reward": 3.6
  },
  {
    "phase": "TASK",
    "condition": "Cond3",
    "trial_num": 45,
    "trial_length": 7,
    "click_num": 5,
    "RT": 1440,
    "action": 1,
    "reward": 2.8
  },
  {
    "phase": "TASK",
    "condition": "Cond3",
    "trial_num": 45,
    "trial_length": 7,
    "click_num": 6,
    "RT": 1320,
    "action": 1,
    "reward": 3.7
  },
  {
    "phase": "TASK",
    "condition": "Cond3",
    "trial_num": 45,
    "trial_length": 7,
    "click_num": 7,
    "RT": 1448,
    "action": 0,
    "reward": 3.7
  },
  {
    "phase": "TASK",
    "condition": "Cond3",
    "trial_num": 46,
    "trial_length": 5,
    "click_num": 1,
    "RT": 2642,
    "action": 1,
    "reward": 2.2
  },
  {
    "phase": "TASK",
    "condition": "Cond3",
    "trial_num": 46,
    "trial_length": 5,
    "click_num": 2,
    "RT": 4438,
    "action": 1,
    "reward": 3.9
  },
  {
    "phase": "TASK",
    "condition": "Cond3",
    "trial_num": 46,
    "trial_length": 5,
    "click_num": 3,
    "RT": 1934,
    "action": 1,
    "reward": 3
  },
  {
    "phase": "TASK",
    "condition": "Cond3",
    "trial_num": 46,
    "trial_length": 5,
    "click_num": 4,
    "RT": 1673,
    "action": 0,
    "reward": 3.9
  },
  {
    "phase": "TASK",
    "condition": "Cond3",
    "trial_num": 46,
    "trial_length": 5,
    "click_num": 5,
    "RT": 1079,
    "action": 0,
    "reward": 3.9
  },
  {
    "phase": "TASK",
    "condition": "Cond3",
    "trial_num": 47,
    "trial_length": 9,
    "click_num": 1,
    "RT": 1911,
    "action": 1,
    "reward": 2
  },
  {
    "phase": "TASK",
    "condition": "Cond3",
    "trial_num": 47,
    "trial_length": 9,
    "click_num": 2,
    "RT": 5559,
    "action": 1,
    "reward": 2.3
  },
  {
    "phase": "TASK",
    "condition": "Cond3",
    "trial_num": 47,
    "trial_length": 9,
    "click_num": 3,
    "RT": 1234,
    "action": 1,
    "reward": 4
  },
  {
    "phase": "TASK",
    "condition": "Cond3",
    "trial_num": 47,
    "trial_length": 9,
    "click_num": 4,
    "RT": 2822,
    "action": 1,
    "reward": 3.9
  },
  {
    "phase": "TASK",
    "condition": "Cond3",
    "trial_num": 47,
    "trial_length": 9,
    "click_num": 5,
    "RT": 1882,
    "action": 1,
    "reward": 3.4
  },
  {
    "phase": "TASK",
    "condition": "Cond3",
    "trial_num": 47,
    "trial_length": 9,
    "click_num": 6,
    "RT": 1278,
    "action": 0,
    "reward": 4
  },
  {
    "phase": "TASK",
    "condition": "Cond3",
    "trial_num": 47,
    "trial_length": 9,
    "click_num": 7,
    "RT": 920,
    "action": 0,
    "reward": 4
  },
  {
    "phase": "TASK",
    "condition": "Cond3",
    "trial_num": 47,
    "trial_length": 9,
    "click_num": 8,
    "RT": 1159,
    "action": 0,
    "reward": 4
  },
  {
    "phase": "TASK",
    "condition": "Cond3",
    "trial_num": 47,
    "trial_length": 9,
    "click_num": 9,
    "RT": 1128,
    "action": 0,
    "reward": 4
  },
  {
    "phase": "TASK",
    "condition": "Cond3",
    "trial_num": 48,
    "trial_length": 10,
    "click_num": 1,
    "RT": 1542,
    "action": 1,
    "reward": 2.8
  },
  {
    "phase": "TASK",
    "condition": "Cond3",
    "trial_num": 48,
    "trial_length": 10,
    "click_num": 2,
    "RT": 1616,
    "action": 1,
    "reward": 3.4
  },
  {
    "phase": "TASK",
    "condition": "Cond3",
    "trial_num": 48,
    "trial_length": 10,
    "click_num": 3,
    "RT": 1175,
    "action": 1,
    "reward": 2.7
  },
  {
    "phase": "TASK",
    "condition": "Cond3",
    "trial_num": 48,
    "trial_length": 10,
    "click_num": 4,
    "RT": 976,
    "action": 1,
    "reward": 3
  },
  {
    "phase": "TASK",
    "condition": "Cond3",
    "trial_num": 48,
    "trial_length": 10,
    "click_num": 5,
    "RT": 1296,
    "action": 1,
    "reward": 2.7
  },
  {
    "phase": "TASK",
    "condition": "Cond3",
    "trial_num": 48,
    "trial_length": 10,
    "click_num": 6,
    "RT": 1145,
    "action": 1,
    "reward": 2.6
  },
  {
    "phase": "TASK",
    "condition": "Cond3",
    "trial_num": 48,
    "trial_length": 10,
    "click_num": 7,
    "RT": 1015,
    "action": 1,
    "reward": 3
  },
  {
    "phase": "TASK",
    "condition": "Cond3",
    "trial_num": 48,
    "trial_length": 10,
    "click_num": 8,
    "RT": 1688,
    "action": 1,
    "reward": 3.1
  },
  {
    "phase": "TASK",
    "condition": "Cond3",
    "trial_num": 48,
    "trial_length": 10,
    "click_num": 9,
    "RT": 2840,
    "action": 0,
    "reward": 3.4
  },
  {
    "phase": "TASK",
    "condition": "Cond3",
    "trial_num": 48,
    "trial_length": 10,
    "click_num": 10,
    "RT": 1984,
    "action": 0,
    "reward": 3.4
  },
  {
    "phase": "TASK",
    "condition": "Cond3",
    "trial_num": 49,
    "trial_length": 6,
    "click_num": 1,
    "RT": 1855,
    "action": 1,
    "reward": 2.6
  },
  {
    "phase": "TASK",
    "condition": "Cond3",
    "trial_num": 49,
    "trial_length": 6,
    "click_num": 2,
    "RT": 1430,
    "action": 1,
    "reward": 2.6
  },
  {
    "phase": "TASK",
    "condition": "Cond3",
    "trial_num": 49,
    "trial_length": 6,
    "click_num": 3,
    "RT": 862,
    "action": 1,
    "reward": 3.5
  },
  {
    "phase": "TASK",
    "condition": "Cond3",
    "trial_num": 49,
    "trial_length": 6,
    "click_num": 4,
    "RT": 1279,
    "action": 1,
    "reward": 1.9
  },
  {
    "phase": "TASK",
    "condition": "Cond3",
    "trial_num": 49,
    "trial_length": 6,
    "click_num": 5,
    "RT": 1150,
    "action": 1,
    "reward": 3.2
  },
  {
    "phase": "TASK",
    "condition": "Cond3",
    "trial_num": 49,
    "trial_length": 6,
    "click_num": 6,
    "RT": 1247,
    "action": 0,
    "reward": 3.5
  },
  {
    "phase": "TASK",
    "condition": "Cond3",
    "trial_num": 50,
    "trial_length": 9,
    "click_num": 1,
    "RT": 1698,
    "action": 1,
    "reward": 3
  },
  {
    "phase": "TASK",
    "condition": "Cond3",
    "trial_num": 50,
    "trial_length": 9,
    "click_num": 2,
    "RT": 1272,
    "action": 1,
    "reward": 3.5
  },
  {
    "phase": "TASK",
    "condition": "Cond3",
    "trial_num": 50,
    "trial_length": 9,
    "click_num": 3,
    "RT": 1040,
    "action": 1,
    "reward": 3
  },
  {
    "phase": "TASK",
    "condition": "Cond3",
    "trial_num": 50,
    "trial_length": 9,
    "click_num": 4,
    "RT": 976,
    "action": 1,
    "reward": 2.9
  },
  {
    "phase": "TASK",
    "condition": "Cond3",
    "trial_num": 50,
    "trial_length": 9,
    "click_num": 5,
    "RT": 776,
    "action": 1,
    "reward": 3.4
  },
  {
    "phase": "TASK",
    "condition": "Cond3",
    "trial_num": 50,
    "trial_length": 9,
    "click_num": 6,
    "RT": 714,
    "action": 1,
    "reward": 3.3
  },
  {
    "phase": "TASK",
    "condition": "Cond3",
    "trial_num": 50,
    "trial_length": 9,
    "click_num": 7,
    "RT": 2358,
    "action": 1,
    "reward": 1.7
  },
  {
    "phase": "TASK",
    "condition": "Cond3",
    "trial_num": 50,
    "trial_length": 9,
    "click_num": 8,
    "RT": 1032,
    "action": 1,
    "reward": 3
  },
  {
    "phase": "TASK",
    "condition": "Cond3",
    "trial_num": 50,
    "trial_length": 9,
    "click_num": 9,
    "RT": 1092,
    "action": 0,
    "reward": 3.5
  },
  {
    "phase": "TASK",
    "condition": "Cond3",
    "trial_num": 51,
    "trial_length": 10,
    "click_num": 1,
    "RT": 1420,
    "action": 1,
    "reward": 2.6
  },
  {
    "phase": "TASK",
    "condition": "Cond3",
    "trial_num": 51,
    "trial_length": 10,
    "click_num": 2,
    "RT": 1072,
    "action": 1,
    "reward": 2.5
  },
  {
    "phase": "TASK",
    "condition": "Cond3",
    "trial_num": 51,
    "trial_length": 10,
    "click_num": 3,
    "RT": 1528,
    "action": 1,
    "reward": 2.5
  },
  {
    "phase": "TASK",
    "condition": "Cond3",
    "trial_num": 51,
    "trial_length": 10,
    "click_num": 4,
    "RT": 1313,
    "action": 1,
    "reward": 2.7
  },
  {
    "phase": "TASK",
    "condition": "Cond3",
    "trial_num": 51,
    "trial_length": 10,
    "click_num": 5,
    "RT": 1305,
    "action": 1,
    "reward": 3.3
  },
  {
    "phase": "TASK",
    "condition": "Cond3",
    "trial_num": 51,
    "trial_length": 10,
    "click_num": 6,
    "RT": 1070,
    "action": 1,
    "reward": 2.7
  },
  {
    "phase": "TASK",
    "condition": "Cond3",
    "trial_num": 51,
    "trial_length": 10,
    "click_num": 7,
    "RT": 928,
    "action": 1,
    "reward": 2.8
  },
  {
    "phase": "TASK",
    "condition": "Cond3",
    "trial_num": 51,
    "trial_length": 10,
    "click_num": 8,
    "RT": 1019,
    "action": 1,
    "reward": 3.6
  },
  {
    "phase": "TASK",
    "condition": "Cond3",
    "trial_num": 51,
    "trial_length": 10,
    "click_num": 9,
    "RT": 1286,
    "action": 1,
    "reward": 3.2
  },
  {
    "phase": "TASK",
    "condition": "Cond3",
    "trial_num": 51,
    "trial_length": 10,
    "click_num": 10,
    "RT": 1343,
    "action": 0,
    "reward": 3.6
  },
  {
    "phase": "TASK",
    "condition": "Cond3",
    "trial_num": 52,
    "trial_length": 5,
    "click_num": 1,
    "RT": 2110,
    "action": 1,
    "reward": 4
  },
  {
    "phase": "TASK",
    "condition": "Cond3",
    "trial_num": 52,
    "trial_length": 5,
    "click_num": 2,
    "RT": 3643,
    "action": 0,
    "reward": 4
  },
  {
    "phase": "TASK",
    "condition": "Cond3",
    "trial_num": 52,
    "trial_length": 5,
    "click_num": 3,
    "RT": 1159,
    "action": 0,
    "reward": 4
  },
  {
    "phase": "TASK",
    "condition": "Cond3",
    "trial_num": 52,
    "trial_length": 5,
    "click_num": 4,
    "RT": 1134,
    "action": 0,
    "reward": 4
  },
  {
    "phase": "TASK",
    "condition": "Cond3",
    "trial_num": 52,
    "trial_length": 5,
    "click_num": 5,
    "RT": 1176,
    "action": 0,
    "reward": 4
  },
  {
    "phase": "TASK",
    "condition": "Cond3",
    "trial_num": 53,
    "trial_length": 10,
    "click_num": 1,
    "RT": 2154,
    "action": 1,
    "reward": 3.8
  },
  {
    "phase": "TASK",
    "condition": "Cond3",
    "trial_num": 53,
    "trial_length": 10,
    "click_num": 2,
    "RT": 3504,
    "action": 1,
    "reward": 2.6
  },
  {
    "phase": "TASK",
    "condition": "Cond3",
    "trial_num": 53,
    "trial_length": 10,
    "click_num": 3,
    "RT": 1152,
    "action": 1,
    "reward": 3
  },
  {
    "phase": "TASK",
    "condition": "Cond3",
    "trial_num": 53,
    "trial_length": 10,
    "click_num": 4,
    "RT": 1191,
    "action": 1,
    "reward": 2.7
  },
  {
    "phase": "TASK",
    "condition": "Cond3",
    "trial_num": 53,
    "trial_length": 10,
    "click_num": 5,
    "RT": 1249,
    "action": 1,
    "reward": 2.5
  },
  {
    "phase": "TASK",
    "condition": "Cond3",
    "trial_num": 53,
    "trial_length": 10,
    "click_num": 6,
    "RT": 1032,
    "action": 1,
    "reward": 3.2
  },
  {
    "phase": "TASK",
    "condition": "Cond3",
    "trial_num": 53,
    "trial_length": 10,
    "click_num": 7,
    "RT": 1048,
    "action": 1,
    "reward": 3.6
  },
  {
    "phase": "TASK",
    "condition": "Cond3",
    "trial_num": 53,
    "trial_length": 10,
    "click_num": 8,
    "RT": 951,
    "action": 1,
    "reward": 2.8
  },
  {
    "phase": "TASK",
    "condition": "Cond3",
    "trial_num": 53,
    "trial_length": 10,
    "click_num": 9,
    "RT": 1823,
    "action": 0,
    "reward": 3.8
  },
  {
    "phase": "TASK",
    "condition": "Cond3",
    "trial_num": 53,
    "trial_length": 10,
    "click_num": 10,
    "RT": 1154,
    "action": 0,
    "reward": 3.8
  },
  {
    "phase": "TASK",
    "condition": "Cond3",
    "trial_num": 54,
    "trial_length": 8,
    "click_num": 1,
    "RT": 1559,
    "action": 1,
    "reward": 3.7
  },
  {
    "phase": "TASK",
    "condition": "Cond3",
    "trial_num": 54,
    "trial_length": 8,
    "click_num": 2,
    "RT": 1511,
    "action": 1,
    "reward": 4.1
  },
  {
    "phase": "TASK",
    "condition": "Cond3",
    "trial_num": 54,
    "trial_length": 8,
    "click_num": 3,
    "RT": 1946,
    "action": 1,
    "reward": 2.9
  },
  {
    "phase": "TASK",
    "condition": "Cond3",
    "trial_num": 54,
    "trial_length": 8,
    "click_num": 4,
    "RT": 1478,
    "action": 1,
    "reward": 3.1
  },
  {
    "phase": "TASK",
    "condition": "Cond3",
    "trial_num": 54,
    "trial_length": 8,
    "click_num": 5,
    "RT": 1425,
    "action": 1,
    "reward": 2.2
  },
  {
    "phase": "TASK",
    "condition": "Cond3",
    "trial_num": 54,
    "trial_length": 8,
    "click_num": 6,
    "RT": 1336,
    "action": 1,
    "reward": 3.5
  },
  {
    "phase": "TASK",
    "condition": "Cond3",
    "trial_num": 54,
    "trial_length": 8,
    "click_num": 7,
    "RT": 1112,
    "action": 0,
    "reward": 4.1
  },
  {
    "phase": "TASK",
    "condition": "Cond3",
    "trial_num": 54,
    "trial_length": 8,
    "click_num": 8,
    "RT": 1091,
    "action": 0,
    "reward": 4.1
  },
  {
    "phase": "TASK",
    "condition": "Cond3",
    "trial_num": 55,
    "trial_length": 6,
    "click_num": 1,
    "RT": 1501,
    "action": 1,
    "reward": 3.1
  },
  {
    "phase": "TASK",
    "condition": "Cond3",
    "trial_num": 55,
    "trial_length": 6,
    "click_num": 2,
    "RT": 1153,
    "action": 1,
    "reward": 2.6
  },
  {
    "phase": "TASK",
    "condition": "Cond3",
    "trial_num": 55,
    "trial_length": 6,
    "click_num": 3,
    "RT": 1425,
    "action": 1,
    "reward": 2.8
  },
  {
    "phase": "TASK",
    "condition": "Cond3",
    "trial_num": 55,
    "trial_length": 6,
    "click_num": 4,
    "RT": 1502,
    "action": 1,
    "reward": 2.4
  },
  {
    "phase": "TASK",
    "condition": "Cond3",
    "trial_num": 55,
    "trial_length": 6,
    "click_num": 5,
    "RT": 1401,
    "action": 1,
    "reward": 2.7
  },
  {
    "phase": "TASK",
    "condition": "Cond3",
    "trial_num": 55,
    "trial_length": 6,
    "click_num": 6,
    "RT": 4159,
    "action": 1,
    "reward": 2.6
  },
  {
    "phase": "TASK",
    "condition": "Cond3",
    "trial_num": 56,
    "trial_length": 7,
    "click_num": 1,
    "RT": 2868,
    "action": 1,
    "reward": 2.7
  },
  {
    "phase": "TASK",
    "condition": "Cond3",
    "trial_num": 56,
    "trial_length": 7,
    "click_num": 2,
    "RT": 1427,
    "action": 1,
    "reward": 3.2
  },
  {
    "phase": "TASK",
    "condition": "Cond3",
    "trial_num": 56,
    "trial_length": 7,
    "click_num": 3,
    "RT": 1542,
    "action": 1,
    "reward": 3.1
  },
  {
    "phase": "TASK",
    "condition": "Cond3",
    "trial_num": 56,
    "trial_length": 7,
    "click_num": 4,
    "RT": 1184,
    "action": 1,
    "reward": 3.7
  },
  {
    "phase": "TASK",
    "condition": "Cond3",
    "trial_num": 56,
    "trial_length": 7,
    "click_num": 5,
    "RT": 1059,
    "action": 1,
    "reward": 1.9
  },
  {
    "phase": "TASK",
    "condition": "Cond3",
    "trial_num": 56,
    "trial_length": 7,
    "click_num": 6,
    "RT": 1134,
    "action": 1,
    "reward": 3.4
  },
  {
    "phase": "TASK",
    "condition": "Cond3",
    "trial_num": 56,
    "trial_length": 7,
    "click_num": 7,
    "RT": 1279,
    "action": 0,
    "reward": 3.7
  },
  {
    "phase": "TASK",
    "condition": "Cond3",
    "trial_num": 57,
    "trial_length": 9,
    "click_num": 1,
    "RT": 4714,
    "action": 1,
    "reward": 2.1
  },
  {
    "phase": "TASK",
    "condition": "Cond3",
    "trial_num": 57,
    "trial_length": 9,
    "click_num": 2,
    "RT": 1854,
    "action": 1,
    "reward": 2.8
  },
  {
    "phase": "TASK",
    "condition": "Cond3",
    "trial_num": 57,
    "trial_length": 9,
    "click_num": 3,
    "RT": 1360,
    "action": 1,
    "reward": 3.8
  },
  {
    "phase": "TASK",
    "condition": "Cond3",
    "trial_num": 57,
    "trial_length": 9,
    "click_num": 4,
    "RT": 1287,
    "action": 1,
    "reward": 1.4
  },
  {
    "phase": "TASK",
    "condition": "Cond3",
    "trial_num": 57,
    "trial_length": 9,
    "click_num": 5,
    "RT": 1243,
    "action": 1,
    "reward": 3.4
  },
  {
    "phase": "TASK",
    "condition": "Cond3",
    "trial_num": 57,
    "trial_length": 9,
    "click_num": 6,
    "RT": 1173,
    "action": 1,
    "reward": 2.6
  },
  {
    "phase": "TASK",
    "condition": "Cond3",
    "trial_num": 57,
    "trial_length": 9,
    "click_num": 7,
    "RT": 1016,
    "action": 1,
    "reward": 3.8
  },
  {
    "phase": "TASK",
    "condition": "Cond3",
    "trial_num": 57,
    "trial_length": 9,
    "click_num": 8,
    "RT": 2024,
    "action": 0,
    "reward": 3.8
  },
  {
    "phase": "TASK",
    "condition": "Cond3",
    "trial_num": 57,
    "trial_length": 9,
    "click_num": 9,
    "RT": 1327,
    "action": 0,
    "reward": 3.8
  },
  {
    "phase": "TASK",
    "condition": "Cond3",
    "trial_num": 58,
    "trial_length": 8,
    "click_num": 1,
    "RT": 1476,
    "action": 1,
    "reward": 3.2
  },
  {
    "phase": "TASK",
    "condition": "Cond3",
    "trial_num": 58,
    "trial_length": 8,
    "click_num": 2,
    "RT": 1737,
    "action": 1,
    "reward": 2.8
  },
  {
    "phase": "TASK",
    "condition": "Cond3",
    "trial_num": 58,
    "trial_length": 8,
    "click_num": 3,
    "RT": 2080,
    "action": 1,
    "reward": 4.1
  },
  {
    "phase": "TASK",
    "condition": "Cond3",
    "trial_num": 58,
    "trial_length": 8,
    "click_num": 4,
    "RT": 2328,
    "action": 1,
    "reward": 3.6
  },
  {
    "phase": "TASK",
    "condition": "Cond3",
    "trial_num": 58,
    "trial_length": 8,
    "click_num": 5,
    "RT": 1751,
    "action": 1,
    "reward": 3.8
  },
  {
    "phase": "TASK",
    "condition": "Cond3",
    "trial_num": 58,
    "trial_length": 8,
    "click_num": 6,
    "RT": 2250,
    "action": 1,
    "reward": 2.5
  },
  {
    "phase": "TASK",
    "condition": "Cond3",
    "trial_num": 58,
    "trial_length": 8,
    "click_num": 7,
    "RT": 2441,
    "action": 1,
    "reward": 3
  },
  {
    "phase": "TASK",
    "condition": "Cond3",
    "trial_num": 58,
    "trial_length": 8,
    "click_num": 8,
    "RT": 1830,
    "action": 0,
    "reward": 4.1
  },
  {
    "phase": "TASK",
    "condition": "Cond3",
    "trial_num": 59,
    "trial_length": 9,
    "click_num": 1,
    "RT": 1554,
    "action": 1,
    "reward": 3.5
  },
  {
    "phase": "TASK",
    "condition": "Cond3",
    "trial_num": 59,
    "trial_length": 9,
    "click_num": 2,
    "RT": 1838,
    "action": 1,
    "reward": 2.2
  },
  {
    "phase": "TASK",
    "condition": "Cond3",
    "trial_num": 59,
    "trial_length": 9,
    "click_num": 3,
    "RT": 1594,
    "action": 1,
    "reward": 2.5
  },
  {
    "phase": "TASK",
    "condition": "Cond3",
    "trial_num": 59,
    "trial_length": 9,
    "click_num": 4,
    "RT": 1368,
    "action": 1,
    "reward": 3
  },
  {
    "phase": "TASK",
    "condition": "Cond3",
    "trial_num": 59,
    "trial_length": 9,
    "click_num": 5,
    "RT": 1366,
    "action": 1,
    "reward": 3.7
  },
  {
    "phase": "TASK",
    "condition": "Cond3",
    "trial_num": 59,
    "trial_length": 9,
    "click_num": 6,
    "RT": 1168,
    "action": 1,
    "reward": 3.1
  },
  {
    "phase": "TASK",
    "condition": "Cond3",
    "trial_num": 59,
    "trial_length": 9,
    "click_num": 7,
    "RT": 1105,
    "action": 1,
    "reward": 3.4
  },
  {
    "phase": "TASK",
    "condition": "Cond3",
    "trial_num": 59,
    "trial_length": 9,
    "click_num": 8,
    "RT": 1744,
    "action": 1,
    "reward": 3.7
  },
  {
    "phase": "TASK",
    "condition": "Cond3",
    "trial_num": 59,
    "trial_length": 9,
    "click_num": 9,
    "RT": 1407,
    "action": 0,
    "reward": 3.7
  },
  {
    "phase": "TASK",
    "condition": "Cond3",
    "trial_num": 60,
    "trial_length": 6,
    "click_num": 1,
    "RT": 2296,
    "action": 1,
    "reward": 2.8
  },
  {
    "phase": "TASK",
    "condition": "Cond3",
    "trial_num": 60,
    "trial_length": 6,
    "click_num": 2,
    "RT": 1383,
    "action": 1,
    "reward": 4
  },
  {
    "phase": "TASK",
    "condition": "Cond3",
    "trial_num": 60,
    "trial_length": 6,
    "click_num": 3,
    "RT": 2681,
    "action": 0,
    "reward": 4
  },
  {
    "phase": "TASK",
    "condition": "Cond3",
    "trial_num": 60,
    "trial_length": 6,
    "click_num": 4,
    "RT": 990,
    "action": 0,
    "reward": 4
  },
  {
    "phase": "TASK",
    "condition": "Cond3",
    "trial_num": 60,
    "trial_length": 6,
    "click_num": 5,
    "RT": 984,
    "action": 0,
    "reward": 4
  },
  {
    "phase": "TASK",
    "condition": "Cond3",
    "trial_num": 60,
    "trial_length": 6,
    "click_num": 6,
    "RT": 1097,
    "action": 0,
    "reward": 4
  },
  {
    "phase": "TASK",
    "condition": "Cond3",
    "trial_num": 61,
    "trial_length": 6,
    "click_num": 1,
    "RT": 2009,
    "action": 1,
    "reward": 2
  },
  {
    "phase": "TASK",
    "condition": "Cond3",
    "trial_num": 61,
    "trial_length": 6,
    "click_num": 2,
    "RT": 1422,
    "action": 1,
    "reward": 3.7
  },
  {
    "phase": "TASK",
    "condition": "Cond3",
    "trial_num": 61,
    "trial_length": 6,
    "click_num": 3,
    "RT": 1585,
    "action": 1,
    "reward": 2.2
  },
  {
    "phase": "TASK",
    "condition": "Cond3",
    "trial_num": 61,
    "trial_length": 6,
    "click_num": 4,
    "RT": 1552,
    "action": 1,
    "reward": 3.3
  },
  {
    "phase": "TASK",
    "condition": "Cond3",
    "trial_num": 61,
    "trial_length": 6,
    "click_num": 5,
    "RT": 1432,
    "action": 1,
    "reward": 3.5
  },
  {
    "phase": "TASK",
    "condition": "Cond3",
    "trial_num": 61,
    "trial_length": 6,
    "click_num": 6,
    "RT": 1056,
    "action": 1,
    "reward": 2.3
  },
  {
    "phase": "TASK",
    "condition": "Cond3",
    "trial_num": 62,
    "trial_length": 10,
    "click_num": 1,
    "RT": 1641,
    "action": 1,
    "reward": 3
  },
  {
    "phase": "TASK",
    "condition": "Cond3",
    "trial_num": 62,
    "trial_length": 10,
    "click_num": 2,
    "RT": 1113,
    "action": 1,
    "reward": 3.1
  },
  {
    "phase": "TASK",
    "condition": "Cond3",
    "trial_num": 62,
    "trial_length": 10,
    "click_num": 3,
    "RT": 973,
    "action": 1,
    "reward": 3
  },
  {
    "phase": "TASK",
    "condition": "Cond3",
    "trial_num": 62,
    "trial_length": 10,
    "click_num": 4,
    "RT": 2730,
    "action": 1,
    "reward": 3
  },
  {
    "phase": "TASK",
    "condition": "Cond3",
    "trial_num": 62,
    "trial_length": 10,
    "click_num": 5,
    "RT": 1200,
    "action": 1,
    "reward": 3
  },
  {
    "phase": "TASK",
    "condition": "Cond3",
    "trial_num": 62,
    "trial_length": 10,
    "click_num": 6,
    "RT": 1118,
    "action": 1,
    "reward": 2.8
  },
  {
    "phase": "TASK",
    "condition": "Cond3",
    "trial_num": 62,
    "trial_length": 10,
    "click_num": 7,
    "RT": 1052,
    "action": 1,
    "reward": 2
  },
  {
    "phase": "TASK",
    "condition": "Cond3",
    "trial_num": 62,
    "trial_length": 10,
    "click_num": 8,
    "RT": 1606,
    "action": 1,
    "reward": 2.3
  },
  {
    "phase": "TASK",
    "condition": "Cond3",
    "trial_num": 62,
    "trial_length": 10,
    "click_num": 9,
    "RT": 3289,
    "action": 1,
    "reward": 2.8
  },
  {
    "phase": "TASK",
    "condition": "Cond3",
    "trial_num": 62,
    "trial_length": 10,
    "click_num": 10,
    "RT": 1471,
    "action": 0,
    "reward": 3.1
  },
  {
    "phase": "TASK",
    "condition": "Cond3",
    "trial_num": 63,
    "trial_length": 9,
    "click_num": 1,
    "RT": 1758,
    "action": 1,
    "reward": 2.1
  },
  {
    "phase": "TASK",
    "condition": "Cond3",
    "trial_num": 63,
    "trial_length": 9,
    "click_num": 2,
    "RT": 1248,
    "action": 1,
    "reward": 1.8
  },
  {
    "phase": "TASK",
    "condition": "Cond3",
    "trial_num": 63,
    "trial_length": 9,
    "click_num": 3,
    "RT": 1568,
    "action": 1,
    "reward": 2
  },
  {
    "phase": "TASK",
    "condition": "Cond3",
    "trial_num": 63,
    "trial_length": 9,
    "click_num": 4,
    "RT": 1375,
    "action": 1,
    "reward": 2.5
  },
  {
    "phase": "TASK",
    "condition": "Cond3",
    "trial_num": 63,
    "trial_length": 9,
    "click_num": 5,
    "RT": 5441,
    "action": 1,
    "reward": 2.2
  },
  {
    "phase": "TASK",
    "condition": "Cond3",
    "trial_num": 63,
    "trial_length": 9,
    "click_num": 6,
    "RT": 1241,
    "action": 1,
    "reward": 3.1
  },
  {
    "phase": "TASK",
    "condition": "Cond3",
    "trial_num": 63,
    "trial_length": 9,
    "click_num": 7,
    "RT": 1271,
    "action": 1,
    "reward": 3
  },
  {
    "phase": "TASK",
    "condition": "Cond3",
    "trial_num": 63,
    "trial_length": 9,
    "click_num": 8,
    "RT": 1423,
    "action": 1,
    "reward": 2.6
  },
  {
    "phase": "TASK",
    "condition": "Cond3",
    "trial_num": 63,
    "trial_length": 9,
    "click_num": 9,
    "RT": 2771,
    "action": 0,
    "reward": 3.1
  },
  {
    "phase": "TASK",
    "condition": "Cond3",
    "trial_num": 64,
    "trial_length": 8,
    "click_num": 1,
    "RT": 1527,
    "action": 1,
    "reward": 3.2
  },
  {
    "phase": "TASK",
    "condition": "Cond3",
    "trial_num": 64,
    "trial_length": 8,
    "click_num": 2,
    "RT": 1422,
    "action": 1,
    "reward": 3
  },
  {
    "phase": "TASK",
    "condition": "Cond3",
    "trial_num": 64,
    "trial_length": 8,
    "click_num": 3,
    "RT": 1376,
    "action": 1,
    "reward": 3.7
  },
  {
    "phase": "TASK",
    "condition": "Cond3",
    "trial_num": 64,
    "trial_length": 8,
    "click_num": 4,
    "RT": 1202,
    "action": 1,
    "reward": 3.1
  },
  {
    "phase": "TASK",
    "condition": "Cond3",
    "trial_num": 64,
    "trial_length": 8,
    "click_num": 5,
    "RT": 1198,
    "action": 1,
    "reward": 3.9
  },
  {
    "phase": "TASK",
    "condition": "Cond3",
    "trial_num": 64,
    "trial_length": 8,
    "click_num": 6,
    "RT": 1504,
    "action": 1,
    "reward": 2.6
  },
  {
    "phase": "TASK",
    "condition": "Cond3",
    "trial_num": 64,
    "trial_length": 8,
    "click_num": 7,
    "RT": 1171,
    "action": 1,
    "reward": 2.8
  },
  {
    "phase": "TASK",
    "condition": "Cond3",
    "trial_num": 64,
    "trial_length": 8,
    "click_num": 8,
    "RT": 1094,
    "action": 0,
    "reward": 3.9
  },
  {
    "phase": "TASK",
    "condition": "Cond3",
    "trial_num": 65,
    "trial_length": 7,
    "click_num": 1,
    "RT": 1319,
    "action": 1,
    "reward": 1.4
  },
  {
    "phase": "TASK",
    "condition": "Cond3",
    "trial_num": 65,
    "trial_length": 7,
    "click_num": 2,
    "RT": 1291,
    "action": 1,
    "reward": 2.7
  },
  {
    "phase": "TASK",
    "condition": "Cond3",
    "trial_num": 65,
    "trial_length": 7,
    "click_num": 3,
    "RT": 1150,
    "action": 1,
    "reward": 2.2
  },
  {
    "phase": "TASK",
    "condition": "Cond3",
    "trial_num": 65,
    "trial_length": 7,
    "click_num": 4,
    "RT": 1170,
    "action": 1,
    "reward": 2.5
  },
  {
    "phase": "TASK",
    "condition": "Cond3",
    "trial_num": 65,
    "trial_length": 7,
    "click_num": 5,
    "RT": 997,
    "action": 1,
    "reward": 3.2
  },
  {
    "phase": "TASK",
    "condition": "Cond3",
    "trial_num": 65,
    "trial_length": 7,
    "click_num": 6,
    "RT": 1169,
    "action": 1,
    "reward": 2.3
  },
  {
    "phase": "TASK",
    "condition": "Cond3",
    "trial_num": 65,
    "trial_length": 7,
    "click_num": 7,
    "RT": 1431,
    "action": 0,
    "reward": 3.2
  },
  {
    "phase": "TASK",
    "condition": "Cond3",
    "trial_num": 66,
    "trial_length": 5,
    "click_num": 1,
    "RT": 1341,
    "action": 1,
    "reward": 2.8
  },
  {
    "phase": "TASK",
    "condition": "Cond3",
    "trial_num": 66,
    "trial_length": 5,
    "click_num": 2,
    "RT": 1472,
    "action": 1,
    "reward": 3.6
  },
  {
    "phase": "TASK",
    "condition": "Cond3",
    "trial_num": 66,
    "trial_length": 5,
    "click_num": 3,
    "RT": 1240,
    "action": 1,
    "reward": 2.4
  },
  {
    "phase": "TASK",
    "condition": "Cond3",
    "trial_num": 66,
    "trial_length": 5,
    "click_num": 4,
    "RT": 1688,
    "action": 1,
    "reward": 2.4
  },
  {
    "phase": "TASK",
    "condition": "Cond3",
    "trial_num": 66,
    "trial_length": 5,
    "click_num": 5,
    "RT": 2262,
    "action": 0,
    "reward": 3.6
  },
  {
    "phase": "TASK",
    "condition": "Cond3",
    "trial_num": 67,
    "trial_length": 5,
    "click_num": 1,
    "RT": 1519,
    "action": 1,
    "reward": 3.4
  },
  {
    "phase": "TASK",
    "condition": "Cond3",
    "trial_num": 67,
    "trial_length": 5,
    "click_num": 2,
    "RT": 4536,
    "action": 1,
    "reward": 3.2
  },
  {
    "phase": "TASK",
    "condition": "Cond3",
    "trial_num": 67,
    "trial_length": 5,
    "click_num": 3,
    "RT": 946,
    "action": 1,
    "reward": 3.5
  },
  {
    "phase": "TASK",
    "condition": "Cond3",
    "trial_num": 67,
    "trial_length": 5,
    "click_num": 4,
    "RT": 910,
    "action": 1,
    "reward": 3.8
  },
  {
    "phase": "TASK",
    "condition": "Cond3",
    "trial_num": 67,
    "trial_length": 5,
    "click_num": 5,
    "RT": 1392,
    "action": 0,
    "reward": 3.8
  },
  {
    "phase": "TASK",
    "condition": "Cond3",
    "trial_num": 68,
    "trial_length": 9,
    "click_num": 1,
    "RT": 1386,
    "action": 1,
    "reward": 2.2
  },
  {
    "phase": "TASK",
    "condition": "Cond3",
    "trial_num": 68,
    "trial_length": 9,
    "click_num": 2,
    "RT": 1451,
    "action": 1,
    "reward": 3.7
  },
  {
    "phase": "TASK",
    "condition": "Cond3",
    "trial_num": 68,
    "trial_length": 9,
    "click_num": 3,
    "RT": 2095,
    "action": 1,
    "reward": 3.4
  },
  {
    "phase": "TASK",
    "condition": "Cond3",
    "trial_num": 68,
    "trial_length": 9,
    "click_num": 4,
    "RT": 1881,
    "action": 1,
    "reward": 3.3
  },
  {
    "phase": "TASK",
    "condition": "Cond3",
    "trial_num": 68,
    "trial_length": 9,
    "click_num": 5,
    "RT": 1417,
    "action": 1,
    "reward": 2.6
  },
  {
    "phase": "TASK",
    "condition": "Cond3",
    "trial_num": 68,
    "trial_length": 9,
    "click_num": 6,
    "RT": 1503,
    "action": 1,
    "reward": 2.5
  },
  {
    "phase": "TASK",
    "condition": "Cond3",
    "trial_num": 68,
    "trial_length": 9,
    "click_num": 7,
    "RT": 1637,
    "action": 1,
    "reward": 2.7
  },
  {
    "phase": "TASK",
    "condition": "Cond3",
    "trial_num": 68,
    "trial_length": 9,
    "click_num": 8,
    "RT": 1273,
    "action": 1,
    "reward": 3
  },
  {
    "phase": "TASK",
    "condition": "Cond3",
    "trial_num": 68,
    "trial_length": 9,
    "click_num": 9,
    "RT": 1458,
    "action": 0,
    "reward": 3.7
  },
  {
    "phase": "TASK",
    "condition": "Cond3",
    "trial_num": 69,
    "trial_length": 10,
    "click_num": 1,
    "RT": 1693,
    "action": 1,
    "reward": 3.6
  },
  {
    "phase": "TASK",
    "condition": "Cond3",
    "trial_num": 69,
    "trial_length": 10,
    "click_num": 2,
    "RT": 1408,
    "action": 1,
    "reward": 2.9
  },
  {
    "phase": "TASK",
    "condition": "Cond3",
    "trial_num": 69,
    "trial_length": 10,
    "click_num": 3,
    "RT": 1953,
    "action": 1,
    "reward": 2.6
  },
  {
    "phase": "TASK",
    "condition": "Cond3",
    "trial_num": 69,
    "trial_length": 10,
    "click_num": 4,
    "RT": 1689,
    "action": 1,
    "reward": 1.9
  },
  {
    "phase": "TASK",
    "condition": "Cond3",
    "trial_num": 69,
    "trial_length": 10,
    "click_num": 5,
    "RT": 1239,
    "action": 1,
    "reward": 2.9
  },
  {
    "phase": "TASK",
    "condition": "Cond3",
    "trial_num": 69,
    "trial_length": 10,
    "click_num": 6,
    "RT": 1407,
    "action": 1,
    "reward": 3.4
  },
  {
    "phase": "TASK",
    "condition": "Cond3",
    "trial_num": 69,
    "trial_length": 10,
    "click_num": 7,
    "RT": 1875,
    "action": 1,
    "reward": 2.4
  },
  {
    "phase": "TASK",
    "condition": "Cond3",
    "trial_num": 69,
    "trial_length": 10,
    "click_num": 8,
    "RT": 1262,
    "action": 1,
    "reward": 2.9
  },
  {
    "phase": "TASK",
    "condition": "Cond3",
    "trial_num": 69,
    "trial_length": 10,
    "click_num": 9,
    "RT": 1553,
    "action": 1,
    "reward": 3.6
  },
  {
    "phase": "TASK",
    "condition": "Cond3",
    "trial_num": 69,
    "trial_length": 10,
    "click_num": 10,
    "RT": 1733,
    "action": 0,
    "reward": 3.6
  },
  {
    "phase": "TASK",
    "condition": "Cond3",
    "trial_num": 70,
    "trial_length": 10,
    "click_num": 1,
    "RT": 1449,
    "action": 1,
    "reward": 3.5
  },
  {
    "phase": "TASK",
    "condition": "Cond3",
    "trial_num": 70,
    "trial_length": 10,
    "click_num": 2,
    "RT": 1758,
    "action": 1,
    "reward": 2.5
  },
  {
    "phase": "TASK",
    "condition": "Cond3",
    "trial_num": 70,
    "trial_length": 10,
    "click_num": 3,
    "RT": 1128,
    "action": 1,
    "reward": 3.6
  },
  {
    "phase": "TASK",
    "condition": "Cond3",
    "trial_num": 70,
    "trial_length": 10,
    "click_num": 4,
    "RT": 904,
    "action": 1,
    "reward": 3.2
  },
  {
    "phase": "TASK",
    "condition": "Cond3",
    "trial_num": 70,
    "trial_length": 10,
    "click_num": 5,
    "RT": 953,
    "action": 1,
    "reward": 3.5
  },
  {
    "phase": "TASK",
    "condition": "Cond3",
    "trial_num": 70,
    "trial_length": 10,
    "click_num": 6,
    "RT": 1343,
    "action": 1,
    "reward": 2.8
  },
  {
    "phase": "TASK",
    "condition": "Cond3",
    "trial_num": 70,
    "trial_length": 10,
    "click_num": 7,
    "RT": 1224,
    "action": 1,
    "reward": 1.9
  },
  {
    "phase": "TASK",
    "condition": "Cond3",
    "trial_num": 70,
    "trial_length": 10,
    "click_num": 8,
    "RT": 899,
    "action": 1,
    "reward": 3.3
  },
  {
    "phase": "TASK",
    "condition": "Cond3",
    "trial_num": 70,
    "trial_length": 10,
    "click_num": 9,
    "RT": 1007,
    "action": 1,
    "reward": 3.3
  },
  {
    "phase": "TASK",
    "condition": "Cond3",
    "trial_num": 70,
    "trial_length": 10,
    "click_num": 10,
    "RT": 1559,
    "action": 0,
    "reward": 3.6
  },
  {
    "phase": "TASK",
    "condition": "Cond3",
    "trial_num": 71,
    "trial_length": 8,
    "click_num": 1,
    "RT": 8607,
    "action": 1,
    "reward": 2.2
  },
  {
    "phase": "TASK",
    "condition": "Cond3",
    "trial_num": 71,
    "trial_length": 8,
    "click_num": 2,
    "RT": 2561,
    "action": 1,
    "reward": 2.7
  },
  {
    "phase": "TASK",
    "condition": "Cond3",
    "trial_num": 71,
    "trial_length": 8,
    "click_num": 3,
    "RT": 1270,
    "action": 1,
    "reward": 2.9
  },
  {
    "phase": "TASK",
    "condition": "Cond3",
    "trial_num": 71,
    "trial_length": 8,
    "click_num": 4,
    "RT": 1256,
    "action": 1,
    "reward": 2.9
  },
  {
    "phase": "TASK",
    "condition": "Cond3",
    "trial_num": 71,
    "trial_length": 8,
    "click_num": 5,
    "RT": 1554,
    "action": 1,
    "reward": 2
  },
  {
    "phase": "TASK",
    "condition": "Cond3",
    "trial_num": 71,
    "trial_length": 8,
    "click_num": 6,
    "RT": 1361,
    "action": 1,
    "reward": 2.5
  },
  {
    "phase": "TASK",
    "condition": "Cond3",
    "trial_num": 71,
    "trial_length": 8,
    "click_num": 7,
    "RT": 1765,
    "action": 1,
    "reward": 3.5
  },
  {
    "phase": "TASK",
    "condition": "Cond3",
    "trial_num": 71,
    "trial_length": 8,
    "click_num": 8,
    "RT": 1871,
    "action": 0,
    "reward": 3.5
  },
  {
    "phase": "TASK",
    "condition": "Cond3",
    "trial_num": 72,
    "trial_length": 8,
    "click_num": 1,
    "RT": 1857,
    "action": 1,
    "reward": 3.2
  },
  {
    "phase": "TASK",
    "condition": "Cond3",
    "trial_num": 72,
    "trial_length": 8,
    "click_num": 2,
    "RT": 1240,
    "action": 1,
    "reward": 2.7
  },
  {
    "phase": "TASK",
    "condition": "Cond3",
    "trial_num": 72,
    "trial_length": 8,
    "click_num": 3,
    "RT": 935,
    "action": 1,
    "reward": 2.7
  },
  {
    "phase": "TASK",
    "condition": "Cond3",
    "trial_num": 72,
    "trial_length": 8,
    "click_num": 4,
    "RT": 1050,
    "action": 1,
    "reward": 3.3
  },
  {
    "phase": "TASK",
    "condition": "Cond3",
    "trial_num": 72,
    "trial_length": 8,
    "click_num": 5,
    "RT": 1161,
    "action": 1,
    "reward": 2.1
  },
  {
    "phase": "TASK",
    "condition": "Cond3",
    "trial_num": 72,
    "trial_length": 8,
    "click_num": 6,
    "RT": 1430,
    "action": 1,
    "reward": 3
  },
  {
    "phase": "TASK",
    "condition": "Cond3",
    "trial_num": 72,
    "trial_length": 8,
    "click_num": 7,
    "RT": 1279,
    "action": 1,
    "reward": 3.2
  },
  {
    "phase": "TASK",
    "condition": "Cond3",
    "trial_num": 72,
    "trial_length": 8,
    "click_num": 8,
    "RT": 1185,
    "action": 0,
    "reward": 3.3
  },
  {
    "phase": "TASK",
    "condition": "Cond3",
    "trial_num": 73,
    "trial_length": 7,
    "click_num": 1,
    "RT": 1557,
    "action": 1,
    "reward": 3.4
  },
  {
    "phase": "TASK",
    "condition": "Cond3",
    "trial_num": 73,
    "trial_length": 7,
    "click_num": 2,
    "RT": 1319,
    "action": 1,
    "reward": 3.2
  },
  {
    "phase": "TASK",
    "condition": "Cond3",
    "trial_num": 73,
    "trial_length": 7,
    "click_num": 3,
    "RT": 4665,
    "action": 1,
    "reward": 2.9
  },
  {
    "phase": "TASK",
    "condition": "Cond3",
    "trial_num": 73,
    "trial_length": 7,
    "click_num": 4,
    "RT": 1600,
    "action": 1,
    "reward": 3.1
  },
  {
    "phase": "TASK",
    "condition": "Cond3",
    "trial_num": 73,
    "trial_length": 7,
    "click_num": 5,
    "RT": 1282,
    "action": 1,
    "reward": 3.4
  },
  {
    "phase": "TASK",
    "condition": "Cond3",
    "trial_num": 73,
    "trial_length": 7,
    "click_num": 6,
    "RT": 1334,
    "action": 1,
    "reward": 2.5
  },
  {
    "phase": "TASK",
    "condition": "Cond3",
    "trial_num": 73,
    "trial_length": 7,
    "click_num": 7,
    "RT": 1327,
    "action": 1,
    "reward": 2.2
  },
  {
    "phase": "TASK",
    "condition": "Cond3",
    "trial_num": 74,
    "trial_length": 7,
    "click_num": 1,
    "RT": 1738,
    "action": 1,
    "reward": 2.7
  },
  {
    "phase": "TASK",
    "condition": "Cond3",
    "trial_num": 74,
    "trial_length": 7,
    "click_num": 2,
    "RT": 1358,
    "action": 1,
    "reward": 3
  },
  {
    "phase": "TASK",
    "condition": "Cond3",
    "trial_num": 74,
    "trial_length": 7,
    "click_num": 3,
    "RT": 1392,
    "action": 1,
    "reward": 2.8
  },
  {
    "phase": "TASK",
    "condition": "Cond3",
    "trial_num": 74,
    "trial_length": 7,
    "click_num": 4,
    "RT": 1400,
    "action": 1,
    "reward": 3.5
  },
  {
    "phase": "TASK",
    "condition": "Cond3",
    "trial_num": 74,
    "trial_length": 7,
    "click_num": 5,
    "RT": 1434,
    "action": 1,
    "reward": 2.6
  },
  {
    "phase": "TASK",
    "condition": "Cond3",
    "trial_num": 74,
    "trial_length": 7,
    "click_num": 6,
    "RT": 1873,
    "action": 1,
    "reward": 3.8
  },
  {
    "phase": "TASK",
    "condition": "Cond3",
    "trial_num": 74,
    "trial_length": 7,
    "click_num": 7,
    "RT": 3045,
    "action": 0,
    "reward": 3.8
  },
  {
    "phase": "TASK",
    "condition": "Cond3",
    "trial_num": 75,
    "trial_length": 8,
    "click_num": 1,
    "RT": 3641,
    "action": 1,
    "reward": 3.7
  },
  {
    "phase": "TASK",
    "condition": "Cond3",
    "trial_num": 75,
    "trial_length": 8,
    "click_num": 2,
    "RT": 2127,
    "action": 1,
    "reward": 3.9
  },
  {
    "phase": "TASK",
    "condition": "Cond3",
    "trial_num": 75,
    "trial_length": 8,
    "click_num": 3,
    "RT": 1535,
    "action": 1,
    "reward": 2.7
  },
  {
    "phase": "TASK",
    "condition": "Cond3",
    "trial_num": 75,
    "trial_length": 8,
    "click_num": 4,
    "RT": 1552,
    "action": 1,
    "reward": 3.4
  },
  {
    "phase": "TASK",
    "condition": "Cond3",
    "trial_num": 75,
    "trial_length": 8,
    "click_num": 5,
    "RT": 1379,
    "action": 1,
    "reward": 3.8
  },
  {
    "phase": "TASK",
    "condition": "Cond3",
    "trial_num": 75,
    "trial_length": 8,
    "click_num": 6,
    "RT": 1079,
    "action": 1,
    "reward": 3.9
  },
  {
    "phase": "TASK",
    "condition": "Cond3",
    "trial_num": 75,
    "trial_length": 8,
    "click_num": 7,
    "RT": 1711,
    "action": 1,
    "reward": 3.6
  },
  {
    "phase": "TASK",
    "condition": "Cond3",
    "trial_num": 75,
    "trial_length": 8,
    "click_num": 8,
    "RT": 1109,
    "action": 0,
    "reward": 3.9
  },
  {
    "phase": "TASK",
    "condition": "Cond3",
    "trial_num": 76,
    "trial_length": 8,
    "click_num": 1,
    "RT": 1555,
    "action": 1,
    "reward": 2.4
  },
  {
    "phase": "TASK",
    "condition": "Cond3",
    "trial_num": 76,
    "trial_length": 8,
    "click_num": 2,
    "RT": 1575,
    "action": 1,
    "reward": 2.3
  },
  {
    "phase": "TASK",
    "condition": "Cond3",
    "trial_num": 76,
    "trial_length": 8,
    "click_num": 3,
    "RT": 1464,
    "action": 1,
    "reward": 2.5
  },
  {
    "phase": "TASK",
    "condition": "Cond3",
    "trial_num": 76,
    "trial_length": 8,
    "click_num": 4,
    "RT": 1161,
    "action": 1,
    "reward": 2.4
  },
  {
    "phase": "TASK",
    "condition": "Cond3",
    "trial_num": 76,
    "trial_length": 8,
    "click_num": 5,
    "RT": 1314,
    "action": 1,
    "reward": 2.9
  },
  {
    "phase": "TASK",
    "condition": "Cond3",
    "trial_num": 76,
    "trial_length": 8,
    "click_num": 6,
    "RT": 1166,
    "action": 1,
    "reward": 3
  },
  {
    "phase": "TASK",
    "condition": "Cond3",
    "trial_num": 76,
    "trial_length": 8,
    "click_num": 7,
    "RT": 1215,
    "action": 1,
    "reward": 3
  },
  {
    "phase": "TASK",
    "condition": "Cond3",
    "trial_num": 76,
    "trial_length": 8,
    "click_num": 8,
    "RT": 5363,
    "action": 0,
    "reward": 3
  },
  {
    "phase": "TASK",
    "condition": "Cond3",
    "trial_num": 77,
    "trial_length": 6,
    "click_num": 1,
    "RT": 1840,
    "action": 1,
    "reward": 2.9
  },
  {
    "phase": "TASK",
    "condition": "Cond3",
    "trial_num": 77,
    "trial_length": 6,
    "click_num": 2,
    "RT": 1611,
    "action": 1,
    "reward": 2.8
  },
  {
    "phase": "TASK",
    "condition": "Cond3",
    "trial_num": 77,
    "trial_length": 6,
    "click_num": 3,
    "RT": 980,
    "action": 1,
    "reward": 3.2
  },
  {
    "phase": "TASK",
    "condition": "Cond3",
    "trial_num": 77,
    "trial_length": 6,
    "click_num": 4,
    "RT": 2460,
    "action": 1,
    "reward": 3.5
  },
  {
    "phase": "TASK",
    "condition": "Cond3",
    "trial_num": 77,
    "trial_length": 6,
    "click_num": 5,
    "RT": 1885,
    "action": 1,
    "reward": 3.1
  },
  {
    "phase": "TASK",
    "condition": "Cond3",
    "trial_num": 77,
    "trial_length": 6,
    "click_num": 6,
    "RT": 1264,
    "action": 0,
    "reward": 3.5
  },
  {
    "phase": "TASK",
    "condition": "Cond3",
    "trial_num": 78,
