[
  {
    "phase": "TASK",
    "condition": "Cond3",
    "trial_num": 1,
    "trial_length": 5,
    "click_num": 1,
    "RT": 3911,
    "action": 1,
    "reward": 2.3
  },
  {
    "phase": "TASK",
    "condition": "Cond3",
    "trial_num": 1,
    "trial_length": 5,
    "click_num": 2,
    "RT": 4694,
    "action": 1,
    "reward": 2.8
  },
  {
    "phase": "TASK",
    "condition": "Cond3",
    "trial_num": 1,
    "trial_length": 5,
    "click_num": 3,
    "RT": 6505,
    "action": 1,
    "reward": 2.3
  },
  {
    "phase": "TASK",
    "condition": "Cond3",
    "trial_num": 1,
    "trial_length": 5,
    "click_num": 4,
    "RT": 3057,
    "action": 1,
    "reward": 3.8
  },
  {
    "phase": "TASK",
    "condition": "Cond3",
    "trial_num": 1,
    "trial_length": 5,
    "click_num": 5,
    "RT": 4871,
    "action": 0,
    "reward": 3.8
  },
  {
    "phase": "TASK",
    "condition": "Cond3",
    "trial_num": 2,
    "trial_length": 6,
    "click_num": 1,
    "RT": 3079,
    "action": 1,
    "reward": 2.7
  },
  {
    "phase": "TASK",
    "condition": "Cond3",
    "trial_num": 2,
    "trial_length": 6,
    "click_num": 2,
    "RT": 2136,
    "action": 1,
    "reward": 2.5
  },
  {
    "phase": "TASK",
    "condition": "Cond3",
    "trial_num": 2,
    "trial_length": 6,
    "click_num": 3,
    "RT": 1385,
    "action": 1,
    "reward": 3
  },
  {
    "phase": "TASK",
    "condition": "Cond3",
    "trial_num": 2,
    "trial_length": 6,
    "click_num": 4,
    "RT": 7231,
    "action": 1,
    "reward": 3.3
  },
  {
    "phase": "TASK",
    "condition": "Cond3",
    "trial_num": 2,
    "trial_length": 6,
    "click_num": 5,
    "RT": 3880,
    "action": 0,
    "reward": 3.3
  },
  {
    "phase": "TASK",
    "condition": "Cond3",
    "trial_num": 2,
    "trial_length": 6,
    "click_num": 6,
    "RT": 1288,
    "action": 0,
    "reward": 3.3
  },
  {
    "phase": "TASK",
    "condition": "Cond3",
    "trial_num": 3,
    "trial_length": 6,
    "click_num": 1,
    "RT": 2190,
    "action": 1,
    "reward": 2.5
  },
  {
    "phase": "TASK",
    "condition": "Cond3",
    "trial_num": 3,
    "trial_length": 6,
    "click_num": 2,
    "RT": 1823,
    "action": 1,
    "reward": 3.3
  },
  {
    "phase": "TASK",
    "condition": "Cond3",
    "trial_num": 3,
    "trial_length": 6,
    "click_num": 3,
    "RT": 2848,
    "action": 1,
    "reward": 4.2
  },
  {
    "phase": "TASK",
    "condition": "Cond3",
    "trial_num": 3,
    "trial_length": 6,
    "click_num": 4,
    "RT": 1601,
    "action": 0,
    "reward": 4.2
  },
  {
    "phase": "TASK",
    "condition": "Cond3",
    "trial_num": 3,
    "trial_length": 6,
    "click_num": 5,
    "RT": 959,
    "action": 0,
    "reward": 4.2
  },
  {
    "phase": "TASK",
    "condition": "Cond3",
    "trial_num": 3,
    "trial_length": 6,
    "click_num": 6,
    "RT": 1113,
    "action": 0,
    "reward": 4.2
  },
  {
    "phase": "TASK",
    "condition": "Cond3",
    "trial_num": 4,
    "trial_length": 10,
    "click_num": 1,
    "RT": 1776,
    "action": 1,
    "reward": 3.2
  },
  {
    "phase": "TASK",
    "condition": "Cond3",
    "trial_num": 4,
    "trial_length": 10,
    "click_num": 2,
    "RT": 1615,
    "action": 1,
    "reward": 3.9
  },
  {
    "phase": "TASK",
    "condition": "Cond3",
    "trial_num": 4,
    "trial_length": 10,
    "click_num": 3,
    "RT": 2681,
    "action": 1,
    "reward": 3.3
  },
  {
    "phase": "TASK",
    "condition": "Cond3",
    "trial_num": 4,
    "trial_length": 10,
    "click_num": 4,
    "RT": 1407,
    "action": 1,
    "reward": 2.7
  },
  {
    "phase": "TASK",
    "condition": "Cond3",
    "trial_num": 4,
    "trial_length": 10,
    "click_num": 5,
    "RT": 1449,
    "action": 1,
    "reward": 1.7
  },
  {
    "phase": "TASK",
    "condition": "Cond3",
    "trial_num": 4,
    "trial_length": 10,
    "click_num": 6,
    "RT": 1248,
    "action": 1,
    "reward": 3
  },
  {
    "phase": "TASK",
    "condition": "Cond3",
    "trial_num": 4,
    "trial_length": 10,
    "click_num": 7,
    "RT": 1311,
    "action": 1,
    "reward": 3.8
  },
  {
    "phase": "TASK",
    "condition": "Cond3",
    "trial_num": 4,
    "trial_length": 10,
    "click_num": 8,
    "RT": 2585,
    "action": 0,
    "reward": 3.9
  },
  {
    "phase": "TASK",
    "condition": "Cond3",
    "trial_num": 4,
    "trial_length": 10,
    "click_num": 9,
    "RT": 943,
    "action": 0,
    "reward": 3.9
  },
  {
    "phase": "TASK",
    "condition": "Cond3",
    "trial_num": 4,
    "trial_length": 10,
    "click_num": 10,
    "RT": 848,
    "action": 0,
    "reward": 3.9
  },
  {
    "phase": "TASK",
    "condition": "Cond3",
    "trial_num": 5,
    "trial_length": 5,
    "click_num": 1,
    "RT": 1480,
    "action": 1,
    "reward": 3.9
  },
  {
    "phase": "TASK",
    "condition": "Cond3",
    "trial_num": 5,
    "trial_length": 5,
    "click_num": 2,
    "RT": 1704,
    "action": 0,
    "reward": 3.9
  },
  {
    "phase": "TASK",
    "condition": "Cond3",
    "trial_num": 5,
    "trial_length": 5,
    "click_num": 3,
    "RT": 1127,
    "action": 0,
    "reward": 3.9
  },
  {
    "phase": "TASK",
    "condition": "Cond3",
    "trial_num": 5,
    "trial_length": 5,
    "click_num": 4,
    "RT": 880,
    "action": 0,
    "reward": 3.9
  },
  {
    "phase": "TASK",
    "condition": "Cond3",
    "trial_num": 5,
    "trial_length": 5,
    "click_num": 5,
    "RT": 992,
    "action": 0,
    "reward": 3.9
  },
  {
    "phase": "TASK",
    "condition": "Cond3",
    "trial_num": 6,
    "trial_length": 7,
    "click_num": 1,
    "RT": 1885,
    "action": 1,
    "reward": 2.4
  },
  {
    "phase": "TASK",
    "condition": "Cond3",
    "trial_num": 6,
    "trial_length": 7,
    "click_num": 2,
    "RT": 1382,
    "action": 1,
    "reward": 3.3
  },
  {
    "phase": "TASK",
    "condition": "Cond3",
    "trial_num": 6,
    "trial_length": 7,
    "click_num": 3,
    "RT": 1561,
    "action": 1,
    "reward": 1.6
  },
  {
    "phase": "TASK",
    "condition": "Cond3",
    "trial_num": 6,
    "trial_length": 7,
    "click_num": 4,
    "RT": 1225,
    "action": 1,
    "reward": 2.4
  },
  {
    "phase": "TASK",
    "condition": "Cond3",
    "trial_num": 6,
    "trial_length": 7,
    "click_num": 5,
    "RT": 1311,
    "action": 1,
    "reward": 3.8
  },
  {
    "phase": "TASK",
    "condition": "Cond3",
    "trial_num": 6,
    "trial_length": 7,
    "click_num": 6,
    "RT": 1624,
    "action": 0,
    "reward": 3.8
  },
  {
    "phase": "TASK",
    "condition": "Cond3",
    "trial_num": 6,
    "trial_length": 7,
    "click_num": 7,
    "RT": 864,
    "action": 0,
    "reward": 3.8
  },
  {
    "phase": "TASK",
    "condition": "Cond3",
    "trial_num": 7,
    "trial_length": 7,
    "click_num": 1,
    "RT": 1678,
    "action": 1,
    "reward": 3.1
  },
  {
    "phase": "TASK",
    "condition": "Cond3",
    "trial_num": 7,
    "trial_length": 7,
    "click_num": 2,
    "RT": 2346,
    "action": 1,
    "reward": 2.8
  },
  {
    "phase": "TASK",
    "condition": "Cond3",
    "trial_num": 7,
    "trial_length": 7,
    "click_num": 3,
    "RT": 1231,
    "action": 1,
    "reward": 2.4
  },
  {
    "phase": "TASK",
    "condition": "Cond3",
    "trial_num": 7,
    "trial_length": 7,
    "click_num": 4,
    "RT": 1487,
    "action": 1,
    "reward": 4.1
  },
  {
    "phase": "TASK",
    "condition": "Cond3",
    "trial_num": 7,
    "trial_length": 7,
    "click_num": 5,
    "RT": 1296,
    "action": 0,
    "reward": 4.1
  },
  {
    "phase": "TASK",
    "condition": "Cond3",
    "trial_num": 7,
    "trial_length": 7,
    "click_num": 6,
    "RT": 867,
    "action": 0,
    "reward": 4.1
  },
  {
    "phase": "TASK",
    "condition": "Cond3",
    "trial_num": 7,
    "trial_length": 7,
    "click_num": 7,
    "RT": 828,
    "action": 0,
    "reward": 4.1
  },
  {
    "phase": "TASK",
    "condition": "Cond3",
    "trial_num": 8,
    "trial_length": 7,
    "click_num": 1,
    "RT": 1886,
    "action": 1,
    "reward": 3
  },
  {
    "phase": "TASK",
    "condition": "Cond3",
    "trial_num": 8,
    "trial_length": 7,
    "click_num": 2,
    "RT": 1507,
    "action": 1,
    "reward": 2.7
  },
  {
    "phase": "TASK",
    "condition": "Cond3",
    "trial_num": 8,
    "trial_length": 7,
    "click_num": 3,
    "RT": 1084,
    "action": 1,
    "reward": 3
  },
  {
    "phase": "TASK",
    "condition": "Cond3",
    "trial_num": 8,
    "trial_length": 7,
    "click_num": 4,
    "RT": 1449,
    "action": 1,
    "reward": 3.1
  },
  {
    "phase": "TASK",
    "condition": "Cond3",
    "trial_num": 8,
    "trial_length": 7,
    "click_num": 5,
    "RT": 2819,
    "action": 1,
    "reward": 2.8
  },
  {
    "phase": "TASK",
    "condition": "Cond3",
    "trial_num": 8,
    "trial_length": 7,
    "click_num": 6,
    "RT": 1397,
    "action": 1,
    "reward": 3.5
  },
  {
    "phase": "TASK",
    "condition": "Cond3",
    "trial_num": 8,
    "trial_length": 7,
    "click_num": 7,
    "RT": 1284,
    "action": 0,
    "reward": 3.5
  },
  {
    "phase": "TASK",
    "condition": "Cond3",
    "trial_num": 9,
    "trial_length": 6,
    "click_num": 1,
    "RT": 1408,
    "action": 1,
    "reward": 2.6
  },
  {
    "phase": "TASK",
    "condition": "Cond3",
    "trial_num": 9,
    "trial_length": 6,
    "click_num": 2,
    "RT": 1292,
    "action": 1,
    "reward": 4.4
  },
  {
    "phase": "TASK",
    "condition": "Cond3",
    "trial_num": 9,
    "trial_length": 6,
    "click_num": 3,
    "RT": 1217,
    "action": 0,
    "reward": 4.4
  },
  {
    "phase": "TASK",
    "condition": "Cond3",
    "trial_num": 9,
    "trial_length": 6,
    "click_num": 4,
    "RT": 1263,
    "action": 0,
    "reward": 4.4
  },
  {
    "phase": "TASK",
    "condition": "Cond3",
    "trial_num": 9,
    "trial_length": 6,
    "click_num": 5,
    "RT": 992,
    "action": 0,
    "reward": 4.4
  },
  {
    "phase": "TASK",
    "condition": "Cond3",
    "trial_num": 9,
    "trial_length": 6,
    "click_num": 6,
    "RT": 859,
    "action": 0,
    "reward": 4.4
  },
  {
    "phase": "TASK",
    "condition": "Cond3",
    "trial_num": 10,
    "trial_length": 9,
    "click_num": 1,
    "RT": 1957,
    "action": 1,
    "reward": 3.3
  },
  {
    "phase": "TASK",
    "condition": "Cond3",
    "trial_num": 10,
    "trial_length": 9,
    "click_num": 2,
    "RT": 1497,
    "action": 1,
    "reward": 3.3
  },
  {
    "phase": "TASK",
    "condition": "Cond3",
    "trial_num": 10,
    "trial_length": 9,
    "click_num": 3,
    "RT": 1345,
    "action": 1,
    "reward": 4.1
  },
  {
    "phase": "TASK",
    "condition": "Cond3",
    "trial_num": 10,
    "trial_length": 9,
    "click_num": 4,
    "RT": 2223,
    "action": 0,
    "reward": 4.1
  },
  {
    "phase": "TASK",
    "condition": "Cond3",
    "trial_num": 10,
    "trial_length": 9,
    "click_num": 5,
    "RT": 824,
    "action": 0,
    "reward": 4.1
  },
  {
    "phase": "TASK",
    "condition": "Cond3",
    "trial_num": 10,
    "trial_length": 9,
    "click_num": 6,
    "RT": 808,
    "action": 0,
    "reward": 4.1
  },
  {
    "phase": "TASK",
    "condition": "Cond3",
    "trial_num": 10,
    "trial_length": 9,
    "click_num": 7,
    "RT": 1304,
    "action": 0,
    "reward": 4.1
  },
  {
    "phase": "TASK",
    "condition": "Cond3",
    "trial_num": 10,
    "trial_length": 9,
    "click_num": 8,
    "RT": 759,
    "action": 0,
    "reward": 4.1
  },
  {
    "phase": "TASK",
    "condition": "Cond3",
    "trial_num": 10,
    "trial_length": 9,
    "click_num": 9,
    "RT": 1219,
    "action": 0,
    "reward": 4.1
  },
  {
    "phase": "TASK",
    "condition": "Cond3",
    "trial_num": 11,
    "trial_length": 8,
    "click_num": 1,
    "RT": 2423,
    "action": 1,
    "reward": 2.9
  },
  {
    "phase": "TASK",
    "condition": "Cond3",
    "trial_num": 11,
    "trial_length": 8,
    "click_num": 2,
    "RT": 1136,
    "action": 1,
    "reward": 2.5
  },
  {
    "phase": "TASK",
    "condition": "Cond3",
    "trial_num": 11,
    "trial_length": 8,
    "click_num": 3,
    "RT": 1095,
    "action": 1,
    "reward": 3.1
  },
  {
    "phase": "TASK",
    "condition": "Cond3",
    "trial_num": 11,
    "trial_length": 8,
    "click_num": 4,
    "RT": 1378,
    "action": 1,
    "reward": 3.7
  },
  {
    "phase": "TASK",
    "condition": "Cond3",
    "trial_num": 11,
    "trial_length": 8,
    "click_num": 5,
    "RT": 1888,
    "action": 0,
    "reward": 3.7
  },
  {
    "phase": "TASK",
    "condition": "Cond3",
    "trial_num": 11,
    "trial_length": 8,
    "click_num": 6,
    "RT": 959,
    "action": 0,
    "reward": 3.7
  },
  {
    "phase": "TASK",
    "condition": "Cond3",
    "trial_num": 11,
    "trial_length": 8,
    "click_num": 7,
    "RT": 891,
    "action": 0,
    "reward": 3.7
  },
  {
    "phase": "TASK",
    "condition": "Cond3",
    "trial_num": 11,
    "trial_length": 8,
    "click_num": 8,
    "RT": 1021,
    "action": 0,
    "reward": 3.7
  },
  {
    "phase": "TASK",
    "condition": "Cond3",
    "trial_num": 12,
    "trial_length": 6,
    "click_num": 1,
    "RT": 2214,
    "action": 1,
    "reward": 2.8
  },
  {
    "phase": "TASK",
    "condition": "Cond3",
    "trial_num": 12,
    "trial_length": 6,
    "click_num": 2,
    "RT": 1619,
    "action": 1,
    "reward": 3.5
  },
  {
    "phase": "TASK",
    "condition": "Cond3",
    "trial_num": 12,
    "trial_length": 6,
    "click_num": 3,
    "RT": 1214,
    "action": 1,
    "reward": 3.7
  },
  {
    "phase": "TASK",
    "condition": "Cond3",
    "trial_num": 12,
    "trial_length": 6,
    "click_num": 4,
    "RT": 1847,
    "action": 0,
    "reward": 3.7
  },
  {
    "phase": "TASK",
    "condition": "Cond3",
    "trial_num": 12,
    "trial_length": 6,
    "click_num": 5,
    "RT": 712,
    "action": 0,
    "reward": 3.7
  },
  {
    "phase": "TASK",
    "condition": "Cond3",
    "trial_num": 12,
    "trial_length": 6,
    "click_num": 6,
    "RT": 800,
    "action": 0,
    "reward": 3.7
  },
  {
    "phase": "TASK",
    "condition": "Cond3",
    "trial_num": 13,
    "trial_length": 10,
    "click_num": 1,
    "RT": 1205,
    "action": 1,
    "reward": 3
  },
  {
    "phase": "TASK",
    "condition": "Cond3",
    "trial_num": 13,
    "trial_length": 10,
    "click_num": 2,
    "RT": 1263,
    "action": 1,
    "reward": 2.7
  },
  {
    "phase": "TASK",
    "condition": "Cond3",
    "trial_num": 13,
    "trial_length": 10,
    "click_num": 3,
    "RT": 968,
    "action": 1,
    "reward": 2.7
  },
  {
    "phase": "TASK",
    "condition": "Cond3",
    "trial_num": 13,
    "trial_length": 10,
    "click_num": 4,
    "RT": 1057,
    "action": 1,
    "reward": 2.7
  },
  {
    "phase": "TASK",
    "condition": "Cond3",
    "trial_num": 13,
    "trial_length": 10,
    "click_num": 5,
    "RT": 1016,
    "action": 1,
    "reward": 2.2
  },
  {
    "phase": "TASK",
    "condition": "Cond3",
    "trial_num": 13,
    "trial_length": 10,
    "click_num": 6,
    "RT": 1103,
    "action": 1,
    "reward": 3.1
  },
  {
    "phase": "TASK",
    "condition": "Cond3",
    "trial_num": 13,
    "trial_length": 10,
    "click_num": 7,
    "RT": 1756,
    "action": 1,
    "reward": 2.2
  },
  {
    "phase": "TASK",
    "condition": "Cond3",
    "trial_num": 13,
    "trial_length": 10,
    "click_num": 8,
    "RT": 1156,
    "action": 1,
    "reward": 2.4
  },
  {
    "phase": "TASK",
    "condition": "Cond3",
    "trial_num": 13,
    "trial_length": 10,
    "click_num": 9,
    "RT": 1257,
    "action": 1,
    "reward": 2.4
  },
  {
    "phase": "TASK",
    "condition": "Cond3",
    "trial_num": 13,
    "trial_length": 10,
    "click_num": 10,
    "RT": 1151,
    "action": 1,
    "reward": 2
  },
  {
    "phase": "TASK",
    "condition": "Cond3",
    "trial_num": 14,
    "trial_length": 8,
    "click_num": 1,
    "RT": 1238,
    "action": 1,
    "reward": 1.9
  },
  {
    "phase": "TASK",
    "condition": "Cond3",
    "trial_num": 14,
    "trial_length": 8,
    "click_num": 2,
    "RT": 1706,
    "action": 1,
    "reward": 4
  },
  {
    "phase": "TASK",
    "condition": "Cond3",
    "trial_num": 14,
    "trial_length": 8,
    "click_num": 3,
    "RT": 1423,
    "action": 0,
    "reward": 4
  },
  {
    "phase": "TASK",
    "condition": "Cond3",
    "trial_num": 14,
    "trial_length": 8,
    "click_num": 4,
    "RT": 832,
    "action": 0,
    "reward": 4
  },
  {
    "phase": "TASK",
    "condition": "Cond3",
    "trial_num": 14,
    "trial_length": 8,
    "click_num": 5,
    "RT": 944,
    "action": 0,
    "reward": 4
  },
  {
    "phase": "TASK",
    "condition": "Cond3",
    "trial_num": 14,
    "trial_length": 8,
    "click_num": 6,
    "RT": 880,
    "action": 0,
    "reward": 4
  },
  {
    "phase": "TASK",
    "condition": "Cond3",
    "trial_num": 14,
    "trial_length": 8,
    "click_num": 7,
    "RT": 888,
    "action": 0,
    "reward": 4
  },
  {
    "phase": "TASK",
    "condition": "Cond3",
    "trial_num": 14,
    "trial_length": 8,
    "click_num": 8,
    "RT": 888,
    "action": 0,
    "reward": 4
  },
  {
    "phase": "TASK",
    "condition": "Cond3",
    "trial_num": 15,
    "trial_length": 8,
    "click_num": 1,
    "RT": 1437,
    "action": 1,
    "reward": 1.9
  },
  {
    "phase": "TASK",
    "condition": "Cond3",
    "trial_num": 15,
    "trial_length": 8,
    "click_num": 2,
    "RT": 1375,
    "action": 1,
    "reward": 3.2
  },
  {
    "phase": "TASK",
    "condition": "Cond3",
    "trial_num": 15,
    "trial_length": 8,
    "click_num": 3,
    "RT": 1904,
    "action": 1,
    "reward": 2.9
  },
  {
    "phase": "TASK",
    "condition": "Cond3",
    "trial_num": 15,
    "trial_length": 8,
    "click_num": 4,
    "RT": 1248,
    "action": 1,
    "reward": 2.6
  },
  {
    "phase": "TASK",
    "condition": "Cond3",
    "trial_num": 15,
    "trial_length": 8,
    "click_num": 5,
    "RT": 1425,
    "action": 0,
    "reward": 3.2
  },
  {
    "phase": "TASK",
    "condition": "Cond3",
    "trial_num": 15,
    "trial_length": 8,
    "click_num": 6,
    "RT": 928,
    "action": 0,
    "reward": 3.2
  },
  {
    "phase": "TASK",
    "condition": "Cond3",
    "trial_num": 15,
    "trial_length": 8,
    "click_num": 7,
    "RT": 800,
    "action": 1,
    "reward": 2.9
  },
  {
    "phase": "TASK",
    "condition": "Cond3",
    "trial_num": 15,
    "trial_length": 8,
    "click_num": 8,
    "RT": 1352,
    "action": 0,
    "reward": 3.2
  },
  {
    "phase": "TASK",
    "condition": "Cond3",
    "trial_num": 16,
    "trial_length": 6,
    "click_num": 1,
    "RT": 1884,
    "action": 1,
    "reward": 3.2
  },
  {
    "phase": "TASK",
    "condition": "Cond3",
    "trial_num": 16,
    "trial_length": 6,
    "click_num": 2,
    "RT": 2120,
    "action": 1,
    "reward": 3.3
  },
  {
    "phase": "TASK",
    "condition": "Cond3",
    "trial_num": 16,
    "trial_length": 6,
    "click_num": 3,
    "RT": 1889,
    "action": 1,
    "reward": 2.1
  },
  {
    "phase": "TASK",
    "condition": "Cond3",
    "trial_num": 16,
    "trial_length": 6,
    "click_num": 4,
    "RT": 1114,
    "action": 0,
    "reward": 3.3
  },
  {
    "phase": "TASK",
    "condition": "Cond3",
    "trial_num": 16,
    "trial_length": 6,
    "click_num": 5,
    "RT": 844,
    "action": 0,
    "reward": 3.3
  },
  {
    "phase": "TASK",
    "condition": "Cond3",
    "trial_num": 16,
    "trial_length": 6,
    "click_num": 6,
    "RT": 752,
    "action": 0,
    "reward": 3.3
  },
  {
    "phase": "TASK",
    "condition": "Cond3",
    "trial_num": 17,
    "trial_length": 10,
    "click_num": 1,
    "RT": 1281,
    "action": 1,
    "reward": 2.4
  },
  {
    "phase": "TASK",
    "condition": "Cond3",
    "trial_num": 17,
    "trial_length": 10,
    "click_num": 2,
    "RT": 975,
    "action": 1,
    "reward": 4
  },
  {
    "phase": "TASK",
    "condition": "Cond3",
    "trial_num": 17,
    "trial_length": 10,
    "click_num": 3,
    "RT": 1449,
    "action": 0,
    "reward": 4
  },
  {
    "phase": "TASK",
    "condition": "Cond3",
    "trial_num": 17,
    "trial_length": 10,
    "click_num": 4,
    "RT": 1111,
    "action": 0,
    "reward": 4
  },
  {
    "phase": "TASK",
    "condition": "Cond3",
    "trial_num": 17,
    "trial_length": 10,
    "click_num": 5,
    "RT": 704,
    "action": 0,
    "reward": 4
  },
  {
    "phase": "TASK",
    "condition": "Cond3",
    "trial_num": 17,
    "trial_length": 10,
    "click_num": 6,
    "RT": 641,
    "action": 0,
    "reward": 4
  },
  {
    "phase": "TASK",
    "condition": "Cond3",
    "trial_num": 17,
    "trial_length": 10,
    "click_num": 7,
    "RT": 863,
    "action": 0,
    "reward": 4
  },
  {
    "phase": "TASK",
    "condition": "Cond3",
    "trial_num": 17,
    "trial_length": 10,
    "click_num": 8,
    "RT": 640,
    "action": 0,
    "reward": 4
  },
  {
    "phase": "TASK",
    "condition": "Cond3",
    "trial_num": 17,
    "trial_length": 10,
    "click_num": 9,
    "RT": 888,
    "action": 0,
    "reward": 4
  },
  {
    "phase": "TASK",
    "condition": "Cond3",
    "trial_num": 17,
    "trial_length": 10,
    "click_num": 10,
    "RT": 1002,
    "action": 0,
    "reward": 4
  },
  {
    "phase": "TASK",
    "condition": "Cond3",
    "trial_num": 18,
    "trial_length": 8,
    "click_num": 1,
    "RT": 1586,
    "action": 1,
    "reward": 3.3
  },
  {
    "phase": "TASK",
    "condition": "Cond3",
    "trial_num": 18,
    "trial_length": 8,
    "click_num": 2,
    "RT": 1423,
    "action": 1,
    "reward": 3.5
  },
  {
    "phase": "TASK",
    "condition": "Cond3",
    "trial_num": 18,
    "trial_length": 8,
    "click_num": 3,
    "RT": 1664,
    "action": 1,
    "reward": 3.7
  },
  {
    "phase": "TASK",
    "condition": "Cond3",
    "trial_num": 18,
    "trial_length": 8,
    "click_num": 4,
    "RT": 1960,
    "action": 1,
    "reward": 3.8
  },
  {
    "phase": "TASK",
    "condition": "Cond3",
    "trial_num": 18,
    "trial_length": 8,
    "click_num": 5,
    "RT": 1488,
    "action": 1,
    "reward": 4
  },
  {
    "phase": "TASK",
    "condition": "Cond3",
    "trial_num": 18,
    "trial_length": 8,
    "click_num": 6,
    "RT": 1617,
    "action": 1,
    "reward": 2.1
  },
  {
    "phase": "TASK",
    "condition": "Cond3",
    "trial_num": 18,
    "trial_length": 8,
    "click_num": 7,
    "RT": 1192,
    "action": 0,
    "reward": 4
  },
  {
    "phase": "TASK",
    "condition": "Cond3",
    "trial_num": 18,
    "trial_length": 8,
    "click_num": 8,
    "RT": 906,
    "action": 0,
    "reward": 4
  },
  {
    "phase": "TASK",
    "condition": "Cond3",
    "trial_num": 19,
    "trial_length": 9,
    "click_num": 1,
    "RT": 1164,
    "action": 1,
    "reward": 4
  },
  {
    "phase": "TASK",
    "condition": "Cond3",
    "trial_num": 19,
    "trial_length": 9,
    "click_num": 2,
    "RT": 2592,
    "action": 1,
    "reward": 3.5
  },
  {
    "phase": "TASK",
    "condition": "Cond3",
    "trial_num": 19,
    "trial_length": 9,
    "click_num": 3,
    "RT": 1384,
    "action": 1,
    "reward": 2.7
  },
  {
    "phase": "TASK",
    "condition": "Cond3",
    "trial_num": 19,
    "trial_length": 9,
    "click_num": 4,
    "RT": 1123,
    "action": 0,
    "reward": 4
  },
  {
    "phase": "TASK",
    "condition": "Cond3",
    "trial_num": 19,
    "trial_length": 9,
    "click_num": 5,
    "RT": 885,
    "action": 0,
    "reward": 4
  },
  {
    "phase": "TASK",
    "condition": "Cond3",
    "trial_num": 19,
    "trial_length": 9,
    "click_num": 6,
    "RT": 810,
    "action": 0,
    "reward": 4
  },
  {
    "phase": "TASK",
    "condition": "Cond3",
    "trial_num": 19,
    "trial_length": 9,
    "click_num": 7,
    "RT": 766,
    "action": 0,
    "reward": 4
  },
  {
    "phase": "TASK",
    "condition": "Cond3",
    "trial_num": 19,
    "trial_length": 9,
    "click_num": 8,
    "RT": 687,
    "action": 1,
    "reward": 4
  },
  {
    "phase": "TASK",
    "condition": "Cond3",
    "trial_num": 19,
    "trial_length": 9,
    "click_num": 9,
    "RT": 1384,
    "action": 0,
    "reward": 4
  },
  {
    "phase": "TASK",
    "condition": "Cond3",
    "trial_num": 20,
    "trial_length": 10,
    "click_num": 1,
    "RT": 1270,
    "action": 1,
    "reward": 3.4
  },
  {
    "phase": "TASK",
    "condition": "Cond3",
    "trial_num": 20,
    "trial_length": 10,
    "click_num": 2,
    "RT": 1456,
    "action": 1,
    "reward": 2.9
  },
  {
    "phase": "TASK",
    "condition": "Cond3",
    "trial_num": 20,
    "trial_length": 10,
    "click_num": 3,
    "RT": 1032,
    "action": 1,
    "reward": 3.2
  },
  {
    "phase": "TASK",
    "condition": "Cond3",
    "trial_num": 20,
    "trial_length": 10,
    "click_num": 4,
    "RT": 1457,
    "action": 1,
    "reward": 3.1
  },
  {
    "phase": "TASK",
    "condition": "Cond3",
    "trial_num": 20,
    "trial_length": 10,
    "click_num": 5,
    "RT": 1615,
    "action": 1,
    "reward": 3.9
  },
  {
    "phase": "TASK",
    "condition": "Cond3",
    "trial_num": 20,
    "trial_length": 10,
    "click_num": 6,
    "RT": 1312,
    "action": 0,
    "reward": 3.9
  },
  {
    "phase": "TASK",
    "condition": "Cond3",
    "trial_num": 20,
    "trial_length": 10,
    "click_num": 7,
    "RT": 857,
    "action": 0,
    "reward": 3.9
  },
  {
    "phase": "TASK",
    "condition": "Cond3",
    "trial_num": 20,
    "trial_length": 10,
    "click_num": 8,
    "RT": 714,
    "action": 0,
    "reward": 3.9
  },
  {
    "phase": "TASK",
    "condition": "Cond3",
    "trial_num": 20,
    "trial_length": 10,
    "click_num": 9,
    "RT": 838,
    "action": 0,
    "reward": 3.9
  },
  {
    "phase": "TASK",
    "condition": "Cond3",
    "trial_num": 20,
    "trial_length": 10,
    "click_num": 10,
    "RT": 1079,
    "action": 0,
    "reward": 3.9
  },
  {
    "phase": "TASK",
    "condition": "Cond3",
    "trial_num": 21,
    "trial_length": 10,
    "click_num": 1,
    "RT": 3175,
    "action": 1,
    "reward": 3.2
  },
  {
    "phase": "TASK",
    "condition": "Cond3",
    "trial_num": 21,
    "trial_length": 10,
    "click_num": 2,
    "RT": 1463,
    "action": 1,
    "reward": 3.2
  },
  {
    "phase": "TASK",
    "condition": "Cond3",
    "trial_num": 21,
    "trial_length": 10,
    "click_num": 3,
    "RT": 1002,
    "action": 1,
    "reward": 2.7
  },
  {
    "phase": "TASK",
    "condition": "Cond3",
    "trial_num": 21,
    "trial_length": 10,
    "click_num": 4,
    "RT": 1079,
    "action": 1,
    "reward": 3.9
  },
  {
    "phase": "TASK",
    "condition": "Cond3",
    "trial_num": 21,
    "trial_length": 10,
    "click_num": 5,
    "RT": 1138,
    "action": 0,
    "reward": 3.9
  },
  {
    "phase": "TASK",
    "condition": "Cond3",
    "trial_num": 21,
    "trial_length": 10,
    "click_num": 6,
    "RT": 1085,
    "action": 0,
    "reward": 3.9
  },
  {
    "phase": "TASK",
    "condition": "Cond3",
    "trial_num": 21,
    "trial_length": 10,
    "click_num": 7,
    "RT": 865,
    "action": 0,
    "reward": 3.9
  },
  {
    "phase": "TASK",
    "condition": "Cond3",
    "trial_num": 21,
    "trial_length": 10,
    "click_num": 8,
    "RT": 920,
    "action": 0,
    "reward": 3.9
  },
  {
    "phase": "TASK",
    "condition": "Cond3",
    "trial_num": 21,
    "trial_length": 10,
    "click_num": 9,
    "RT": 863,
    "action": 0,
    "reward": 3.9
  },
  {
    "phase": "TASK",
    "condition": "Cond3",
    "trial_num": 21,
    "trial_length": 10,
    "click_num": 10,
    "RT": 1792,
    "action": 0,
    "reward": 3.9
  },
  {
    "phase": "TASK",
    "condition": "Cond3",
    "trial_num": 22,
    "trial_length": 7,
    "click_num": 1,
    "RT": 1647,
    "action": 1,
    "reward": 3.8
  },
  {
    "phase": "TASK",
    "condition": "Cond3",
    "trial_num": 22,
    "trial_length": 7,
    "click_num": 2,
    "RT": 2297,
    "action": 0,
    "reward": 3.8
  },
  {
    "phase": "TASK",
    "condition": "Cond3",
    "trial_num": 22,
    "trial_length": 7,
    "click_num": 3,
    "RT": 746,
    "action": 0,
    "reward": 3.8
  },
  {
    "phase": "TASK",
    "condition": "Cond3",
    "trial_num": 22,
    "trial_length": 7,
    "click_num": 4,
    "RT": 773,
    "action": 0,
    "reward": 3.8
  },
  {
    "phase": "TASK",
    "condition": "Cond3",
    "trial_num": 22,
    "trial_length": 7,
    "click_num": 5,
    "RT": 803,
    "action": 0,
    "reward": 3.8
  },
  {
    "phase": "TASK",
    "condition": "Cond3",
    "trial_num": 22,
    "trial_length": 7,
    "click_num": 6,
    "RT": 725,
    "action": 0,
    "reward": 3.8
  },
  {
    "phase": "TASK",
    "condition": "Cond3",
    "trial_num": 22,
    "trial_length": 7,
    "click_num": 7,
    "RT": 864,
    "action": 0,
    "reward": 3.8
  },
  {
    "phase": "TASK",
    "condition": "Cond3",
    "trial_num": 23,
    "trial_length": 9,
    "click_num": 1,
    "RT": 1710,
    "action": 1,
    "reward": 2.6
  },
  {
    "phase": "TASK",
    "condition": "Cond3",
    "trial_num": 23,
    "trial_length": 9,
    "click_num": 2,
    "RT": 1439,
    "action": 1,
    "reward": 3.5
  },
  {
    "phase": "TASK",
    "condition": "Cond3",
    "trial_num": 23,
    "trial_length": 9,
    "click_num": 3,
    "RT": 1035,
    "action": 1,
    "reward": 3
  },
  {
    "phase": "TASK",
    "condition": "Cond3",
    "trial_num": 23,
    "trial_length": 9,
    "click_num": 4,
    "RT": 1235,
    "action": 1,
    "reward": 2.5
  },
  {
    "phase": "TASK",
    "condition": "Cond3",
    "trial_num": 23,
    "trial_length": 9,
    "click_num": 5,
    "RT": 1395,
    "action": 1,
    "reward": 2.8
  },
  {
    "phase": "TASK",
    "condition": "Cond3",
    "trial_num": 23,
    "trial_length": 9,
    "click_num": 6,
    "RT": 1088,
    "action": 1,
    "reward": 2.8
  },
  {
    "phase": "TASK",
    "condition": "Cond3",
    "trial_num": 23,
    "trial_length": 9,
    "click_num": 7,
    "RT": 1051,
    "action": 1,
    "reward": 2.6
  },
  {
    "phase": "TASK",
    "condition": "Cond3",
    "trial_num": 23,
    "trial_length": 9,
    "click_num": 8,
    "RT": 1133,
    "action": 1,
    "reward": 3.4
  },
  {
    "phase": "TASK",
    "condition": "Cond3",
    "trial_num": 23,
    "trial_length": 9,
    "click_num": 9,
    "RT": 1479,
    "action": 1,
    "reward": 3.4
  },
  {
    "phase": "TASK",
    "condition": "Cond3",
    "trial_num": 24,
    "trial_length": 10,
    "click_num": 1,
    "RT": 1147,
    "action": 1,
    "reward": 2.4
  },
  {
    "phase": "TASK",
    "condition": "Cond3",
    "trial_num": 24,
    "trial_length": 10,
    "click_num": 2,
    "RT": 1447,
    "action": 1,
    "reward": 2.7
  },
  {
    "phase": "TASK",
    "condition": "Cond3",
    "trial_num": 24,
    "trial_length": 10,
    "click_num": 3,
    "RT": 1040,
    "action": 1,
    "reward": 3.8
  },
  {
    "phase": "TASK",
    "condition": "Cond3",
    "trial_num": 24,
    "trial_length": 10,
    "click_num": 4,
    "RT": 1616,
    "action": 0,
    "reward": 3.8
  },
  {
    "phase": "TASK",
    "condition": "Cond3",
    "trial_num": 24,
    "trial_length": 10,
    "click_num": 5,
    "RT": 897,
    "action": 0,
    "reward": 3.8
  },
  {
    "phase": "TASK",
    "condition": "Cond3",
    "trial_num": 24,
    "trial_length": 10,
    "click_num": 6,
    "RT": 1313,
    "action": 0,
    "reward": 3.8
  },
  {
    "phase": "TASK",
    "condition": "Cond3",
    "trial_num": 24,
    "trial_length": 10,
    "click_num": 7,
    "RT": 871,
    "action": 0,
    "reward": 3.8
  },
  {
    "phase": "TASK",
    "condition": "Cond3",
    "trial_num": 24,
    "trial_length": 10,
    "click_num": 8,
    "RT": 890,
    "action": 1,
    "reward": 2.7
  },
  {
    "phase": "TASK",
    "condition": "Cond3",
    "trial_num": 24,
    "trial_length": 10,
    "click_num": 9,
    "RT": 1212,
    "action": 1,
    "reward": 3
  },
  {
    "phase": "TASK",
    "condition": "Cond3",
    "trial_num": 24,
    "trial_length": 10,
    "click_num": 10,
    "RT": 937,
    "action": 0,
    "reward": 3.8
  },
  {
    "phase": "TASK",
    "condition": "Cond3",
    "trial_num": 25,
    "trial_length": 9,
    "click_num": 1,
    "RT": 1166,
    "action": 1,
    "reward": 3.3
  },
  {
    "phase": "TASK",
    "condition": "Cond3",
    "trial_num": 25,
    "trial_length": 9,
    "click_num": 2,
    "RT": 1095,
    "action": 1,
    "reward": 3.7
  },
  {
    "phase": "TASK",
    "condition": "Cond3",
    "trial_num": 25,
    "trial_length": 9,
    "click_num": 3,
    "RT": 1531,
    "action": 1,
    "reward": 2.6
  },
  {
    "phase": "TASK",
    "condition": "Cond3",
    "trial_num": 25,
    "trial_length": 9,
    "click_num": 4,
    "RT": 917,
    "action": 1,
    "reward": 2.3
  },
  {
    "phase": "TASK",
    "condition": "Cond3",
    "trial_num": 25,
    "trial_length": 9,
    "click_num": 5,
    "RT": 1087,
    "action": 1,
    "reward": 3.2
  },
  {
    "phase": "TASK",
    "condition": "Cond3",
    "trial_num": 25,
    "trial_length": 9,
    "click_num": 6,
    "RT": 1201,
    "action": 1,
    "reward": 3.1
  },
  {
    "phase": "TASK",
    "condition": "Cond3",
    "trial_num": 25,
    "trial_length": 9,
    "click_num": 7,
    "RT": 1024,
    "action": 0,
    "reward": 3.7
  },
  {
    "phase": "TASK",
    "condition": "Cond3",
    "trial_num": 25,
    "trial_length": 9,
    "click_num": 8,
    "RT": 863,
    "action": 0,
    "reward": 3.7
  },
  {
    "phase": "TASK",
    "condition": "Cond3",
    "trial_num": 25,
    "trial_length": 9,
    "click_num": 9,
    "RT": 681,
    "action": 0,
    "reward": 3.7
  },
  {
    "phase": "TASK",
    "condition": "Cond3",
    "trial_num": 26,
    "trial_length": 7,
    "click_num": 1,
    "RT": 1122,
    "action": 1,
    "reward": 3
  },
  {
    "phase": "TASK",
    "condition": "Cond3",
    "trial_num": 26,
    "trial_length": 7,
    "click_num": 2,
    "RT": 1266,
    "action": 1,
    "reward": 4
  },
  {
    "phase": "TASK",
    "condition": "Cond3",
    "trial_num": 26,
    "trial_length": 7,
    "click_num": 3,
    "RT": 1076,
    "action": 0,
    "reward": 4
  },
  {
    "phase": "TASK",
    "condition": "Cond3",
    "trial_num": 26,
    "trial_length": 7,
    "click_num": 4,
    "RT": 706,
    "action": 0,
    "reward": 4
  },
  {
    "phase": "TASK",
    "condition": "Cond3",
    "trial_num": 26,
    "trial_length": 7,
    "click_num": 5,
    "RT": 674,
    "action": 0,
    "reward": 4
  },
  {
    "phase": "TASK",
    "condition": "Cond3",
    "trial_num": 26,
    "trial_length": 7,
    "click_num": 6,
    "RT": 734,
    "action": 0,
    "reward": 4
  },
  {
    "phase": "TASK",
    "condition": "Cond3",
    "trial_num": 26,
    "trial_length": 7,
    "click_num": 7,
    "RT": 771,
    "action": 0,
    "reward": 4
  },
  {
    "phase": "TASK",
    "condition": "Cond3",
    "trial_num": 27,
    "trial_length": 7,
    "click_num": 1,
    "RT": 1789,
    "action": 1,
    "reward": 3
  },
  {
    "phase": "TASK",
    "condition": "Cond3",
    "trial_num": 27,
    "trial_length": 7,
    "click_num": 2,
    "RT": 1199,
    "action": 1,
    "reward": 3.5
  },
  {
    "phase": "TASK",
    "condition": "Cond3",
    "trial_num": 27,
    "trial_length": 7,
    "click_num": 3,
    "RT": 1145,
    "action": 1,
    "reward": 2.3
  },
  {
    "phase": "TASK",
    "condition": "Cond3",
    "trial_num": 27,
    "trial_length": 7,
    "click_num": 4,
    "RT": 1000,
    "action": 1,
    "reward": 3.1
  },
  {
    "phase": "TASK",
    "condition": "Cond3",
    "trial_num": 27,
    "trial_length": 7,
    "click_num": 5,
    "RT": 1128,
    "action": 1,
    "reward": 3.7
  },
  {
    "phase": "TASK",
    "condition": "Cond3",
    "trial_num": 27,
    "trial_length": 7,
    "click_num": 6,
    "RT": 1256,
    "action": 0,
    "reward": 3.7
  },
  {
    "phase": "TASK",
    "condition": "Cond3",
    "trial_num": 27,
    "trial_length": 7,
    "click_num": 7,
    "RT": 961,
    "action": 0,
    "reward": 3.7
  },
  {
    "phase": "TASK",
    "condition": "Cond3",
    "trial_num": 28,
    "trial_length": 9,
    "click_num": 1,
    "RT": 1126,
    "action": 1,
    "reward": 4.1
  },
  {
    "phase": "TASK",
    "condition": "Cond3",
    "trial_num": 28,
    "trial_length": 9,
    "click_num": 2,
    "RT": 1343,
    "action": 0,
    "reward": 4.1
  },
  {
    "phase": "TASK",
    "condition": "Cond3",
    "trial_num": 28,
    "trial_length": 9,
    "click_num": 3,
    "RT": 665,
    "action": 0,
    "reward": 4.1
  },
  {
    "phase": "TASK",
    "condition": "Cond3",
    "trial_num": 28,
    "trial_length": 9,
    "click_num": 4,
    "RT": 787,
    "action": 0,
    "reward": 4.1
  },
  {
    "phase": "TASK",
    "condition": "Cond3",
    "trial_num": 28,
    "trial_length": 9,
    "click_num": 5,
    "RT": 725,
    "action": 0,
    "reward": 4.1
  },
  {
    "phase": "TASK",
    "condition": "Cond3",
    "trial_num": 28,
    "trial_length": 9,
    "click_num": 6,
    "RT": 873,
    "action": 0,
    "reward": 4.1
  },
  {
    "phase": "TASK",
    "condition": "Cond3",
    "trial_num": 28,
    "trial_length": 9,
    "click_num": 7,
    "RT": 786,
    "action": 0,
    "reward": 4.1
  },
  {
    "phase": "TASK",
    "condition": "Cond3",
    "trial_num": 28,
    "trial_length": 9,
    "click_num": 8,
    "RT": 774,
    "action": 0,
    "reward": 4.1
  },
  {
    "phase": "TASK",
    "condition": "Cond3",
    "trial_num": 28,
    "trial_length": 9,
    "click_num": 9,
    "RT": 739,
    "action": 0,
    "reward": 4.1
  },
  {
    "phase": "TASK",
    "condition": "Cond3",
    "trial_num": 29,
    "trial_length": 8,
    "click_num": 1,
    "RT": 1590,
    "action": 1,
    "reward": 2.8
  },
  {
    "phase": "TASK",
    "condition": "Cond3",
    "trial_num": 29,
    "trial_length": 8,
    "click_num": 2,
    "RT": 1215,
    "action": 1,
    "reward": 3.7
  },
  {
    "phase": "TASK",
    "condition": "Cond3",
    "trial_num": 29,
    "trial_length": 8,
    "click_num": 3,
    "RT": 2769,
    "action": 1,
    "reward": 3.4
  },
  {
    "phase": "TASK",
    "condition": "Cond3",
    "trial_num": 29,
    "trial_length": 8,
    "click_num": 4,
    "RT": 1359,
    "action": 1,
    "reward": 3
  },
  {
    "phase": "TASK",
    "condition": "Cond3",
    "trial_num": 29,
    "trial_length": 8,
    "click_num": 5,
    "RT": 1201,
    "action": 0,
    "reward": 3.7
  },
  {
    "phase": "TASK",
    "condition": "Cond3",
    "trial_num": 29,
    "trial_length": 8,
    "click_num": 6,
    "RT": 671,
    "action": 0,
    "reward": 3.7
  },
  {
    "phase": "TASK",
    "condition": "Cond3",
    "trial_num": 29,
    "trial_length": 8,
    "click_num": 7,
    "RT": 632,
    "action": 0,
    "reward": 3.7
  },
  {
    "phase": "TASK",
    "condition": "Cond3",
    "trial_num": 29,
    "trial_length": 8,
    "click_num": 8,
    "RT": 792,
    "action": 0,
    "reward": 3.7
  },
  {
    "phase": "TASK",
    "condition": "Cond3",
    "trial_num": 30,
    "trial_length": 9,
    "click_num": 1,
    "RT": 1511,
    "action": 1,
    "reward": 2.1
  },
  {
    "phase": "TASK",
    "condition": "Cond3",
    "trial_num": 30,
    "trial_length": 9,
    "click_num": 2,
    "RT": 1246,
    "action": 1,
    "reward": 3.5
  },
  {
    "phase": "TASK",
    "condition": "Cond3",
    "trial_num": 30,
    "trial_length": 9,
    "click_num": 3,
    "RT": 1512,
    "action": 1,
    "reward": 3.1
  },
  {
    "phase": "TASK",
    "condition": "Cond3",
    "trial_num": 30,
    "trial_length": 9,
    "click_num": 4,
    "RT": 1049,
    "action": 1,
    "reward": 4.1
  },
  {
    "phase": "TASK",
    "condition": "Cond3",
    "trial_num": 30,
    "trial_length": 9,
    "click_num": 5,
    "RT": 1224,
    "action": 0,
    "reward": 4.1
  },
  {
    "phase": "TASK",
    "condition": "Cond3",
    "trial_num": 30,
    "trial_length": 9,
    "click_num": 6,
    "RT": 1002,
    "action": 0,
    "reward": 4.1
  },
  {
    "phase": "TASK",
    "condition": "Cond3",
    "trial_num": 30,
    "trial_length": 9,
    "click_num": 7,
    "RT": 1831,
    "action": 0,
    "reward": 4.1
  },
  {
    "phase": "TASK",
    "condition": "Cond3",
    "trial_num": 30,
    "trial_length": 9,
    "click_num": 8,
    "RT": 1129,
    "action": 0,
    "reward": 4.1
  },
  {
    "phase": "TASK",
    "condition": "Cond3",
    "trial_num": 30,
    "trial_length": 9,
    "click_num": 9,
    "RT": 726,
    "action": 0,
    "reward": 4.1
  },
  {
    "phase": "TASK",
    "condition": "Cond3",
    "trial_num": 31,
    "trial_length": 6,
    "click_num": 1,
    "RT": 1294,
    "action": 1,
    "reward": 4.1
  },
  {
    "phase": "TASK",
    "condition": "Cond3",
    "trial_num": 31,
    "trial_length": 6,
    "click_num": 2,
    "RT": 1714,
    "action": 0,
    "reward": 4.1
  },
  {
    "phase": "TASK",
    "condition": "Cond3",
    "trial_num": 31,
    "trial_length": 6,
    "click_num": 3,
    "RT": 777,
    "action": 0,
    "reward": 4.1
  },
  {
    "phase": "TASK",
    "condition": "Cond3",
    "trial_num": 31,
    "trial_length": 6,
    "click_num": 4,
    "RT": 629,
    "action": 0,
    "reward": 4.1
  },
  {
    "phase": "TASK",
    "condition": "Cond3",
    "trial_num": 31,
    "trial_length": 6,
    "click_num": 5,
    "RT": 648,
    "action": 0,
    "reward": 4.1
  },
  {
    "phase": "TASK",
    "condition": "Cond3",
    "trial_num": 31,
    "trial_length": 6,
    "click_num": 6,
    "RT": 944,
    "action": 0,
    "reward": 4.1
  },
  {
    "phase": "TASK",
    "condition": "Cond3",
    "trial_num": 32,
    "trial_length": 10,
    "click_num": 1,
    "RT": 1127,
    "action": 1,
    "reward": 3.5
  },
  {
    "phase": "TASK",
    "condition": "Cond3",
    "trial_num": 32,
    "trial_length": 10,
    "click_num": 2,
    "RT": 1377,
    "action": 1,
    "reward": 1.9
  },
  {
    "phase": "TASK",
    "condition": "Cond3",
    "trial_num": 32,
    "trial_length": 10,
    "click_num": 3,
    "RT": 943,
    "action": 1,
    "reward": 3
  },
  {
    "phase": "TASK",
    "condition": "Cond3",
    "trial_num": 32,
    "trial_length": 10,
    "click_num": 4,
    "RT": 964,
    "action": 1,
    "reward": 3.6
  },
  {
    "phase": "TASK",
    "condition": "Cond3",
    "trial_num": 32,
    "trial_length": 10,
    "click_num": 5,
    "RT": 1648,
    "action": 1,
    "reward": 3
  },
  {
    "phase": "TASK",
    "condition": "Cond3",
    "trial_num": 32,
    "trial_length": 10,
    "click_num": 6,
    "RT": 1255,
    "action": 1,
    "reward": 2.7
  },
  {
    "phase": "TASK",
    "condition": "Cond3",
    "trial_num": 32,
    "trial_length": 10,
    "click_num": 7,
    "RT": 893,
    "action": 1,
    "reward": 3.4
  },
  {
    "phase": "TASK",
    "condition": "Cond3",
    "trial_num": 32,
    "trial_length": 10,
    "click_num": 8,
    "RT": 848,
    "action": 1,
    "reward": 3
  },
  {
    "phase": "TASK",
    "condition": "Cond3",
    "trial_num": 32,
    "trial_length": 10,
    "click_num": 9,
    "RT": 784,
    "action": 1,
    "reward": 3.7
  },
  {
    "phase": "TASK",
    "condition": "Cond3",
    "trial_num": 32,
    "trial_length": 10,
    "click_num": 10,
    "RT": 1017,
    "action": 0,
    "reward": 3.7
  },
  {
    "phase": "TASK",
    "condition": "Cond3",
    "trial_num": 33,
    "trial_length": 9,
    "click_num": 1,
    "RT": 1130,
    "action": 1,
    "reward": 1.9
  },
  {
    "phase": "TASK",
    "condition": "Cond3",
    "trial_num": 33,
    "trial_length": 9,
    "click_num": 2,
    "RT": 1100,
    "action": 1,
    "reward": 3
  },
  {
    "phase": "TASK",
    "condition": "Cond3",
    "trial_num": 33,
    "trial_length": 9,
    "click_num": 3,
    "RT": 970,
    "action": 1,
    "reward": 3
  },
  {
    "phase": "TASK",
    "condition": "Cond3",
    "trial_num": 33,
    "trial_length": 9,
    "click_num": 4,
    "RT": 945,
    "action": 1,
    "reward": 3.2
  },
  {
    "phase": "TASK",
    "condition": "Cond3",
    "trial_num": 33,
    "trial_length": 9,
    "click_num": 5,
    "RT": 942,
    "action": 1,
    "reward": 3.6
  },
  {
    "phase": "TASK",
    "condition": "Cond3",
    "trial_num": 33,
    "trial_length": 9,
    "click_num": 6,
    "RT": 1047,
    "action": 1,
    "reward": 3.7
  },
  {
    "phase": "TASK",
    "condition": "Cond3",
    "trial_num": 33,
    "trial_length": 9,
    "click_num": 7,
    "RT": 1336,
    "action": 0,
    "reward": 3.7
  },
  {
    "phase": "TASK",
    "condition": "Cond3",
    "trial_num": 33,
    "trial_length": 9,
    "click_num": 8,
    "RT": 680,
    "action": 0,
    "reward": 3.7
  },
  {
    "phase": "TASK",
    "condition": "Cond3",
    "trial_num": 33,
    "trial_length": 9,
    "click_num": 9,
    "RT": 1042,
    "action": 0,
    "reward": 3.7
  },
  {
    "phase": "TASK",
    "condition": "Cond3",
    "trial_num": 34,
    "trial_length": 8,
    "click_num": 1,
    "RT": 855,
    "action": 1,
    "reward": 3.7
  },
  {
    "phase": "TASK",
    "condition": "Cond3",
    "trial_num": 34,
    "trial_length": 8,
    "click_num": 2,
    "RT": 2640,
    "action": 1,
    "reward": 3.6
  },
  {
    "phase": "TASK",
    "condition": "Cond3",
    "trial_num": 34,
    "trial_length": 8,
    "click_num": 3,
    "RT": 1467,
    "action": 1,
    "reward": 2.7
  },
  {
    "phase": "TASK",
    "condition": "Cond3",
    "trial_num": 34,
    "trial_length": 8,
    "click_num": 4,
    "RT": 1012,
    "action": 0,
    "reward": 3.7
  },
  {
    "phase": "TASK",
    "condition": "Cond3",
    "trial_num": 34,
    "trial_length": 8,
    "click_num": 5,
    "RT": 544,
    "action": 0,
    "reward": 3.7
  },
  {
    "phase": "TASK",
    "condition": "Cond3",
    "trial_num": 34,
    "trial_length": 8,
    "click_num": 6,
    "RT": 529,
    "action": 0,
    "reward": 3.7
  },
  {
    "phase": "TASK",
    "condition": "Cond3",
    "trial_num": 34,
    "trial_length": 8,
    "click_num": 7,
    "RT": 920,
    "action": 0,
    "reward": 3.7
  },
  {
    "phase": "TASK",
    "condition": "Cond3",
    "trial_num": 34,
    "trial_length": 8,
    "click_num": 8,
    "RT": 584,
    "action": 0,
    "reward": 3.7
  },
  {
    "phase": "TASK",
    "condition": "Cond3",
    "trial_num": 35,
    "trial_length": 5,
    "click_num": 1,
    "RT": 1278,
    "action": 1,
    "reward": 1.7
  },
  {
    "phase": "TASK",
    "condition": "Cond3",
    "trial_num": 35,
    "trial_length": 5,
    "click_num": 2,
    "RT": 1195,
    "action": 1,
    "reward": 3
  },
  {
    "phase": "TASK",
    "condition": "Cond3",
    "trial_num": 35,
    "trial_length": 5,
    "click_num": 3,
    "RT": 1056,
    "action": 1,
    "reward": 2.7
  },
  {
    "phase": "TASK",
    "condition": "Cond3",
    "trial_num": 35,
    "trial_length": 5,
    "click_num": 4,
    "RT": 958,
    "action": 1,
    "reward": 2.4
  },
  {
    "phase": "TASK",
    "condition": "Cond3",
    "trial_num": 35,
    "trial_length": 5,
    "click_num": 5,
    "RT": 824,
    "action": 1,
    "reward": 3.4
  },
  {
    "phase": "TASK",
    "condition": "Cond3",
    "trial_num": 36,
    "trial_length": 10,
    "click_num": 1,
    "RT": 1247,
    "action": 1,
    "reward": 3.8
  },
  {
    "phase": "TASK",
    "condition": "Cond3",
    "trial_num": 36,
    "trial_length": 10,
    "click_num": 2,
    "RT": 1641,
    "action": 1,
    "reward": 2.7
  },
  {
    "phase": "TASK",
    "condition": "Cond3",
    "trial_num": 36,
    "trial_length": 10,
    "click_num": 3,
    "RT": 1116,
    "action": 1,
    "reward": 2.8
  },
  {
    "phase": "TASK",
    "condition": "Cond3",
    "trial_num": 36,
    "trial_length": 10,
    "click_num": 4,
    "RT": 1130,
    "action": 0,
    "reward": 3.8
  },
  {
    "phase": "TASK",
    "condition": "Cond3",
    "trial_num": 36,
    "trial_length": 10,
    "click_num": 5,
    "RT": 571,
    "action": 0,
    "reward": 3.8
  },
  {
    "phase": "TASK",
    "condition": "Cond3",
    "trial_num": 36,
    "trial_length": 10,
    "click_num": 6,
    "RT": 542,
    "action": 0,
    "reward": 3.8
  },
  {
    "phase": "TASK",
    "condition": "Cond3",
    "trial_num": 36,
    "trial_length": 10,
    "click_num": 7,
    "RT": 519,
    "action": 0,
    "reward": 3.8
  },
  {
    "phase": "TASK",
    "condition": "Cond3",
    "trial_num": 36,
    "trial_length": 10,
    "click_num": 8,
    "RT": 904,
    "action": 0,
    "reward": 3.8
  },
  {
    "phase": "TASK",
    "condition": "Cond3",
    "trial_num": 36,
    "trial_length": 10,
    "click_num": 9,
    "RT": 575,
    "action": 0,
    "reward": 3.8
  },
  {
    "phase": "TASK",
    "condition": "Cond3",
    "trial_num": 36,
    "trial_length": 10,
    "click_num": 10,
    "RT": 577,
    "action": 0,
    "reward": 3.8
  },
  {
    "phase": "TASK",
    "condition": "Cond3",
    "trial_num": 37,
    "trial_length": 9,
    "click_num": 1,
    "RT": 1974,
    "action": 1,
    "reward": 3.6
  },
  {
    "phase": "TASK",
    "condition": "Cond3",
    "trial_num": 37,
    "trial_length": 9,
    "click_num": 2,
    "RT": 951,
    "action": 1,
    "reward": 2.3
  },
  {
    "phase": "TASK",
    "condition": "Cond3",
    "trial_num": 37,
    "trial_length": 9,
    "click_num": 3,
    "RT": 1208,
    "action": 1,
    "reward": 2.8
  },
  {
    "phase": "TASK",
    "condition": "Cond3",
    "trial_num": 37,
    "trial_length": 9,
    "click_num": 4,
    "RT": 1369,
    "action": 1,
    "reward": 3
  },
  {
    "phase": "TASK",
    "condition": "Cond3",
    "trial_num": 37,
    "trial_length": 9,
    "click_num": 5,
    "RT": 1022,
    "action": 1,
    "reward": 3.4
  },
  {
    "phase": "TASK",
    "condition": "Cond3",
    "trial_num": 37,
    "trial_length": 9,
    "click_num": 6,
    "RT": 754,
    "action": 1,
    "reward": 3
  },
  {
    "phase": "TASK",
    "condition": "Cond3",
    "trial_num": 37,
    "trial_length": 9,
    "click_num": 7,
    "RT": 825,
    "action": 1,
    "reward": 2.7
  },
  {
    "phase": "TASK",
    "condition": "Cond3",
    "trial_num": 37,
    "trial_length": 9,
    "click_num": 8,
    "RT": 1055,
    "action": 1,
    "reward": 3.1
  },
  {
    "phase": "TASK",
    "condition": "Cond3",
    "trial_num": 37,
    "trial_length": 9,
    "click_num": 9,
    "RT": 783,
    "action": 1,
    "reward": 3.9
  },
  {
    "phase": "TASK",
    "condition": "Cond3",
    "trial_num": 38,
    "trial_length": 8,
    "click_num": 1,
    "RT": 1433,
    "action": 1,
    "reward": 3.5
  },
  {
    "phase": "TASK",
    "condition": "Cond3",
    "trial_num": 38,
    "trial_length": 8,
    "click_num": 2,
    "RT": 2557,
    "action": 0,
    "reward": 3.5
  },
  {
    "phase": "TASK",
    "condition": "Cond3",
    "trial_num": 38,
    "trial_length": 8,
    "click_num": 3,
    "RT": 737,
    "action": 0,
    "reward": 3.5
  },
  {
    "phase": "TASK",
    "condition": "Cond3",
    "trial_num": 38,
    "trial_length": 8,
    "click_num": 4,
    "RT": 616,
    "action": 1,
    "reward": 4.3
  },
  {
    "phase": "TASK",
    "condition": "Cond3",
    "trial_num": 38,
    "trial_length": 8,
    "click_num": 5,
    "RT": 1255,
    "action": 0,
    "reward": 4.3
  },
  {
    "phase": "TASK",
    "condition": "Cond3",
    "trial_num": 38,
    "trial_length": 8,
    "click_num": 6,
    "RT": 976,
    "action": 0,
    "reward": 4.3
  },
  {
    "phase": "TASK",
    "condition": "Cond3",
    "trial_num": 38,
    "trial_length": 8,
    "click_num": 7,
    "RT": 656,
    "action": 0,
    "reward": 4.3
  },
  {
    "phase": "TASK",
    "condition": "Cond3",
    "trial_num": 38,
    "trial_length": 8,
    "click_num": 8,
    "RT": 768,
    "action": 0,
    "reward": 4.3
  },
  {
    "phase": "TASK",
    "condition": "Cond3",
    "trial_num": 39,
    "trial_length": 10,
    "click_num": 1,
    "RT": 1342,
    "action": 1,
    "reward": 2.9
  },
  {
    "phase": "TASK",
    "condition": "Cond3",
    "trial_num": 39,
    "trial_length": 10,
    "click_num": 2,
    "RT": 1279,
    "action": 1,
    "reward": 3.1
  },
  {
    "phase": "TASK",
    "condition": "Cond3",
    "trial_num": 39,
    "trial_length": 10,
    "click_num": 3,
    "RT": 992,
    "action": 1,
    "reward": 3.9
  },
  {
    "phase": "TASK",
    "condition": "Cond3",
    "trial_num": 39,
    "trial_length": 10,
    "click_num": 4,
    "RT": 1119,
    "action": 0,
    "reward": 3.9
  },
  {
    "phase": "TASK",
    "condition": "Cond3",
    "trial_num": 39,
    "trial_length": 10,
    "click_num": 5,
    "RT": 801,
    "action": 0,
    "reward": 3.9
  },
  {
    "phase": "TASK",
    "condition": "Cond3",
    "trial_num": 39,
    "trial_length": 10,
    "click_num": 6,
    "RT": 520,
    "action": 0,
    "reward": 3.9
  },
  {
    "phase": "TASK",
    "condition": "Cond3",
    "trial_num": 39,
    "trial_length": 10,
    "click_num": 7,
    "RT": 512,
    "action": 0,
    "reward": 3.9
  },
  {
    "phase": "TASK",
    "condition": "Cond3",
    "trial_num": 39,
    "trial_length": 10,
    "click_num": 8,
    "RT": 488,
    "action": 0,
    "reward": 3.9
  },
  {
    "phase": "TASK",
    "condition": "Cond3",
    "trial_num": 39,
    "trial_length": 10,
    "click_num": 9,
    "RT": 464,
    "action": 0,
    "reward": 3.9
  },
  {
    "phase": "TASK",
    "condition": "Cond3",
    "trial_num": 39,
    "trial_length": 10,
    "click_num": 10,
    "RT": 489,
    "action": 0,
    "reward": 3.9
  },
  {
    "phase": "TASK",
    "condition": "Cond3",
    "trial_num": 40,
    "trial_length": 8,
    "click_num": 1,
    "RT": 1191,
    "action": 1,
    "reward": 2.7
  },
  {
    "phase": "TASK",
    "condition": "Cond3",
    "trial_num": 40,
    "trial_length": 8,
    "click_num": 2,
    "RT": 856,
    "action": 1,
    "reward": 3.2
  },
  {
    "phase": "TASK",
    "condition": "Cond3",
    "trial_num": 40,
    "trial_length": 8,
    "click_num": 3,
    "RT": 1080,
    "action": 1,
    "reward": 2.8
  },
  {
    "phase": "TASK",
    "condition": "Cond3",
    "trial_num": 40,
    "trial_length": 8,
    "click_num": 4,
    "RT": 1184,
    "action": 1,
    "reward": 2.8
  },
  {
    "phase": "TASK",
    "condition": "Cond3",
    "trial_num": 40,
    "trial_length": 8,
    "click_num": 5,
    "RT": 823,
    "action": 1,
    "reward": 4.4
  },
  {
    "phase": "TASK",
    "condition": "Cond3",
    "trial_num": 40,
    "trial_length": 8,
    "click_num": 6,
    "RT": 1273,
    "action": 0,
    "reward": 4.4
  },
  {
    "phase": "TASK",
    "condition": "Cond3",
    "trial_num": 40,
    "trial_length": 8,
    "click_num": 7,
    "RT": 510,
    "action": 0,
    "reward": 4.4
  },
  {
    "phase": "TASK",
    "condition": "Cond3",
    "trial_num": 40,
    "trial_length": 8,
    "click_num": 8,
    "RT": 690,
    "action": 0,
    "reward": 4.4
  },
  {
    "phase": "TASK",
    "condition": "Cond3",
    "trial_num": 41,
    "trial_length": 7,
    "click_num": 1,
    "RT": 1352,
    "action": 1,
    "reward": 2.3
  },
  {
    "phase": "TASK",
    "condition": "Cond3",
    "trial_num": 41,
    "trial_length": 7,
    "click_num": 2,
    "RT": 1833,
    "action": 1,
    "reward": 1.9
  },
  {
    "phase": "TASK",
    "condition": "Cond3",
    "trial_num": 41,
    "trial_length": 7,
    "click_num": 3,
    "RT": 862,
    "action": 1,
    "reward": 3.4
  },
  {
    "phase": "TASK",
    "condition": "Cond3",
    "trial_num": 41,
    "trial_length": 7,
    "click_num": 4,
    "RT": 1240,
    "action": 1,
    "reward": 3.6
  },
  {
    "phase": "TASK",
    "condition": "Cond3",
    "trial_num": 41,
    "trial_length": 7,
    "click_num": 5,
    "RT": 896,
    "action": 1,
    "reward": 2.9
  },
  {
    "phase": "TASK",
    "condition": "Cond3",
    "trial_num": 41,
    "trial_length": 7,
    "click_num": 6,
    "RT": 889,
    "action": 1,
    "reward": 2.8
  },
  {
    "phase": "TASK",
    "condition": "Cond3",
    "trial_num": 41,
    "trial_length": 7,
    "click_num": 7,
    "RT": 1007,
    "action": 0,
    "reward": 3.6
  },
  {
    "phase": "TASK",
    "condition": "Cond3",
    "trial_num": 42,
    "trial_length": 6,
    "click_num": 1,
    "RT": 871,
    "action": 1,
    "reward": 3
  },
  {
    "phase": "TASK",
    "condition": "Cond3",
    "trial_num": 42,
    "trial_length": 6,
    "click_num": 2,
    "RT": 876,
    "action": 1,
    "reward": 3.5
  },
  {
    "phase": "TASK",
    "condition": "Cond3",
    "trial_num": 42,
    "trial_length": 6,
    "click_num": 3,
    "RT": 1277,
    "action": 1,
    "reward": 3
  },
  {
    "phase": "TASK",
    "condition": "Cond3",
    "trial_num": 42,
    "trial_length": 6,
    "click_num": 4,
    "RT": 807,
    "action": 1,
    "reward": 3.7
  },
  {
    "phase": "TASK",
    "condition": "Cond3",
    "trial_num": 42,
    "trial_length": 6,
    "click_num": 5,
    "RT": 1039,
    "action": 0,
    "reward": 3.7
  },
  {
    "phase": "TASK",
    "condition": "Cond3",
    "trial_num": 42,
    "trial_length": 6,
    "click_num": 6,
    "RT": 592,
    "action": 0,
    "reward": 3.7
  },
  {
    "phase": "TASK",
    "condition": "Cond3",
    "trial_num": 43,
    "trial_length": 7,
    "click_num": 1,
    "RT": 1318,
    "action": 1,
    "reward": 2.9
  },
  {
    "phase": "TASK",
    "condition": "Cond3",
    "trial_num": 43,
    "trial_length": 7,
    "click_num": 2,
    "RT": 2000,
    "action": 1,
    "reward": 2.6
  },
  {
    "phase": "TASK",
    "condition": "Cond3",
    "trial_num": 43,
    "trial_length": 7,
    "click_num": 3,
    "RT": 1345,
    "action": 1,
    "reward": 2.8
  },
  {
    "phase": "TASK",
    "condition": "Cond3",
    "trial_num": 43,
    "trial_length": 7,
    "click_num": 4,
    "RT": 1159,
    "action": 1,
    "reward": 3.5
  },
  {
    "phase": "TASK",
    "condition": "Cond3",
    "trial_num": 43,
    "trial_length": 7,
    "click_num": 5,
    "RT": 2040,
    "action": 1,
    "reward": 2.6
  },
  {
    "phase": "TASK",
    "condition": "Cond3",
    "trial_num": 43,
    "trial_length": 7,
    "click_num": 6,
    "RT": 822,
    "action": 1,
    "reward": 2.9
  },
  {
    "phase": "TASK",
    "condition": "Cond3",
    "trial_num": 43,
    "trial_length": 7,
    "click_num": 7,
    "RT": 850,
    "action": 1,
    "reward": 3.6
  },
  {
    "phase": "TASK",
    "condition": "Cond3",
    "trial_num": 44,
    "trial_length": 9,
    "click_num": 1,
    "RT": 1310,
    "action": 1,
    "reward": 2.7
  },
  {
    "phase": "TASK",
    "condition": "Cond3",
    "trial_num": 44,
    "trial_length": 9,
    "click_num": 2,
    "RT": 1352,
    "action": 1,
    "reward": 3.5
  },
  {
    "phase": "TASK",
    "condition": "Cond3",
    "trial_num": 44,
    "trial_length": 9,
    "click_num": 3,
    "RT": 2858,
    "action": 0,
    "reward": 3.5
  },
  {
    "phase": "TASK",
    "condition": "Cond3",
    "trial_num": 44,
    "trial_length": 9,
    "click_num": 4,
    "RT": 878,
    "action": 1,
    "reward": 3.5
  },
  {
    "phase": "TASK",
    "condition": "Cond3",
    "trial_num": 44,
    "trial_length": 9,
    "click_num": 5,
    "RT": 2087,
    "action": 1,
    "reward": 3.4
  },
  {
    "phase": "TASK",
    "condition": "Cond3",
    "trial_num": 44,
    "trial_length": 9,
    "click_num": 6,
    "RT": 1288,
    "action": 1,
    "reward": 2.6
  },
  {
    "phase": "TASK",
    "condition": "Cond3",
    "trial_num": 44,
    "trial_length": 9,
    "click_num": 7,
    "RT": 1192,
    "action": 1,
    "reward": 2.2
  },
  {
    "phase": "TASK",
    "condition": "Cond3",
    "trial_num": 44,
    "trial_length": 9,
    "click_num": 8,
    "RT": 1495,
    "action": 1,
    "reward": 2.9
  },
  {
    "phase": "TASK",
    "condition": "Cond3",
    "trial_num": 44,
    "trial_length": 9,
    "click_num": 9,
    "RT": 1018,
    "action": 1,
    "reward": 3.4
  },
  {
    "phase": "TASK",
    "condition": "Cond3",
    "trial_num": 45,
    "trial_length": 9,
    "click_num": 1,
    "RT": 1285,
    "action": 1,
    "reward": 1.1
  },
  {
    "phase": "TASK",
    "condition": "Cond3",
    "trial_num": 45,
    "trial_length": 9,
    "click_num": 2,
    "RT": 1275,
    "action": 1,
    "reward": 3.3
  },
  {
    "phase": "TASK",
    "condition": "Cond3",
    "trial_num": 45,
    "trial_length": 9,
    "click_num": 3,
    "RT": 1598,
    "action": 1,
    "reward": 2
  },
  {
    "phase": "TASK",
    "condition": "Cond3",
    "trial_num": 45,
    "trial_length": 9,
    "click_num": 4,
    "RT": 1241,
    "action": 1,
    "reward": 3.3
  },
  {
    "phase": "TASK",
    "condition": "Cond3",
    "trial_num": 45,
    "trial_length": 9,
    "click_num": 5,
    "RT": 1629,
    "action": 1,
    "reward": 3.4
  },
  {
    "phase": "TASK",
    "condition": "Cond3",
    "trial_num": 45,
    "trial_length": 9,
    "click_num": 6,
    "RT": 1146,
    "action": 1,
    "reward": 3
  },
  {
    "phase": "TASK",
    "condition": "Cond3",
    "trial_num": 45,
    "trial_length": 9,
    "click_num": 7,
    "RT": 1000,
    "action": 1,
    "reward": 3.5
  },
  {
    "phase": "TASK",
    "condition": "Cond3",
    "trial_num": 45,
    "trial_length": 9,
    "click_num": 8,
    "RT": 2016,
    "action": 0,
    "reward": 3.5
  },
  {
    "phase": "TASK",
    "condition": "Cond3",
    "trial_num": 45,
    "trial_length": 9,
    "click_num": 9,
    "RT": 632,
    "action": 0,
    "reward": 3.5
  },
  {
    "phase": "TASK",
    "condition": "Cond3",
    "trial_num": 46,
    "trial_length": 6,
    "click_num": 1,
    "RT": 1539,
    "action": 1,
    "reward": 4.1
  },
  {
    "phase": "TASK",
    "condition": "Cond3",
    "trial_num": 46,
    "trial_length": 6,
    "click_num": 2,
    "RT": 1873,
    "action": 0,
    "reward": 4.1
  },
  {
    "phase": "TASK",
    "condition": "Cond3",
    "trial_num": 46,
    "trial_length": 6,
    "click_num": 3,
    "RT": 924,
    "action": 0,
    "reward": 4.1
  },
  {
    "phase": "TASK",
    "condition": "Cond3",
    "trial_num": 46,
    "trial_length": 6,
    "click_num": 4,
    "RT": 716,
    "action": 0,
    "reward": 4.1
  },
  {
    "phase": "TASK",
    "condition": "Cond3",
    "trial_num": 46,
    "trial_length": 6,
    "click_num": 5,
    "RT": 635,
    "action": 0,
    "reward": 4.1
  },
  {
    "phase": "TASK",
    "condition": "Cond3",
    "trial_num": 46,
    "trial_length": 6,
    "click_num": 6,
    "RT": 625,
    "action": 0,
    "reward": 4.1
  },
  {
    "phase": "TASK",
    "condition": "Cond3",
    "trial_num": 47,
    "trial_length": 5,
    "click_num": 1,
    "RT": 983,
    "action": 1,
    "reward": 2.3
  },
  {
    "phase": "TASK",
    "condition": "Cond3",
    "trial_num": 47,
    "trial_length": 5,
    "click_num": 2,
    "RT": 1207,
    "action": 1,
    "reward": 2.5
  },
  {
    "phase": "TASK",
    "condition": "Cond3",
    "trial_num": 47,
    "trial_length": 5,
    "click_num": 3,
    "RT": 712,
    "action": 1,
    "reward": 2.4
  },
  {
    "phase": "TASK",
    "condition": "Cond3",
    "trial_num": 47,
    "trial_length": 5,
    "click_num": 4,
    "RT": 800,
    "action": 1,
    "reward": 2.6
  },
  {
    "phase": "TASK",
    "condition": "Cond3",
    "trial_num": 47,
    "trial_length": 5,
    "click_num": 5,
    "RT": 1072,
    "action": 1,
    "reward": 2.8
  },
  {
    "phase": "TASK",
    "condition": "Cond3",
    "trial_num": 48,
    "trial_length": 7,
    "click_num": 1,
    "RT": 1870,
    "action": 1,
    "reward": 2.3
  },
  {
    "phase": "TASK",
    "condition": "Cond3",
    "trial_num": 48,
    "trial_length": 7,
    "click_num": 2,
    "RT": 1104,
    "action": 1,
    "reward": 3.8
  },
  {
    "phase": "TASK",
    "condition": "Cond3",
    "trial_num": 48,
    "trial_length": 7,
    "click_num": 3,
    "RT": 2483,
    "action": 0,
    "reward": 3.8
  },
  {
    "phase": "TASK",
    "condition": "Cond3",
    "trial_num": 48,
    "trial_length": 7,
    "click_num": 4,
    "RT": 668,
    "action": 0,
    "reward": 3.8
  },
  {
    "phase": "TASK",
    "condition": "Cond3",
    "trial_num": 48,
    "trial_length": 7,
    "click_num": 5,
    "RT": 537,
    "action": 0,
    "reward": 3.8
  },
  {
    "phase": "TASK",
    "condition": "Cond3",
    "trial_num": 48,
    "trial_length": 7,
    "click_num": 6,
    "RT": 976,
    "action": 0,
    "reward": 3.8
  },
  {
    "phase": "TASK",
    "condition": "Cond3",
    "trial_num": 48,
    "trial_length": 7,
    "click_num": 7,
    "RT": 608,
    "action": 0,
    "reward": 3.8
  },
  {
    "phase": "TASK",
    "condition": "Cond3",
    "trial_num": 49,
    "trial_length": 6,
    "click_num": 1,
    "RT": 1008,
    "action": 1,
    "reward": 2.2
  },
  {
    "phase": "TASK",
    "condition": "Cond3",
    "trial_num": 49,
    "trial_length": 6,
    "click_num": 2,
    "RT": 968,
    "action": 1,
    "reward": 2.9
  },
  {
    "phase": "TASK",
    "condition": "Cond3",
    "trial_num": 49,
    "trial_length": 6,
    "click_num": 3,
    "RT": 904,
    "action": 1,
    "reward": 2.6
  },
  {
    "phase": "TASK",
    "condition": "Cond3",
    "trial_num": 49,
    "trial_length": 6,
    "click_num": 4,
    "RT": 776,
    "action": 1,
    "reward": 2.5
  },
  {
    "phase": "TASK",
    "condition": "Cond3",
    "trial_num": 49,
    "trial_length": 6,
    "click_num": 5,
    "RT": 720,
    "action": 1,
    "reward": 3.4
  },
  {
    "phase": "TASK",
    "condition": "Cond3",
    "trial_num": 49,
    "trial_length": 6,
    "click_num": 6,
    "RT": 1248,
    "action": 1,
    "reward": 2.6
  },
  {
    "phase": "TASK",
    "condition": "Cond3",
    "trial_num": 50,
    "trial_length": 5,
    "click_num": 1,
    "RT": 848,
    "action": 1,
    "reward": 2.7
  },
  {
    "phase": "TASK",
    "condition": "Cond3",
    "trial_num": 50,
    "trial_length": 5,
    "click_num": 2,
    "RT": 1134,
    "action": 1,
    "reward": 3.8
  },
  {
    "phase": "TASK",
    "condition": "Cond3",
    "trial_num": 50,
    "trial_length": 5,
    "click_num": 3,
    "RT": 1135,
    "action": 0,
    "reward": 3.8
  },
  {
    "phase": "TASK",
    "condition": "Cond3",
    "trial_num": 50,
    "trial_length": 5,
    "click_num": 4,
    "RT": 571,
    "action": 0,
    "reward": 3.8
  },
  {
    "phase": "TASK",
    "condition": "Cond3",
    "trial_num": 50,
    "trial_length": 5,
    "click_num": 5,
    "RT": 678,
    "action": 0,
    "reward": 3.8
  },
  {
    "phase": "TASK",
    "condition": "Cond3",
    "trial_num": 51,
    "trial_length": 6,
    "click_num": 1,
    "RT": 1505,
    "action": 1,
    "reward": 2.5
  },
  {
    "phase": "TASK",
    "condition": "Cond3",
    "trial_num": 51,
    "trial_length": 6,
    "click_num": 2,
    "RT": 975,
    "action": 1,
    "reward": 3.6
  },
  {
    "phase": "TASK",
    "condition": "Cond3",
    "trial_num": 51,
    "trial_length": 6,
    "click_num": 3,
    "RT": 2199,
    "action": 1,
    "reward": 2.8
  },
  {
    "phase": "TASK",
    "condition": "Cond3",
    "trial_num": 51,
    "trial_length": 6,
    "click_num": 4,
    "RT": 1536,
    "action": 1,
    "reward": 3.2
  },
  {
    "phase": "TASK",
    "condition": "Cond3",
    "trial_num": 51,
    "trial_length": 6,
    "click_num": 5,
    "RT": 1119,
    "action": 1,
    "reward": 1.7
  },
  {
    "phase": "TASK",
    "condition": "Cond3",
    "trial_num": 51,
    "trial_length": 6,
    "click_num": 6,
    "RT": 1129,
    "action": 1,
    "reward": 2.8
  },
  {
    "phase": "TASK",
    "condition": "Cond3",
    "trial_num": 52,
    "trial_length": 10,
    "click_num": 1,
    "RT": 1174,
    "action": 1,
    "reward": 2.9
  },
  {
    "phase": "TASK",
    "condition": "Cond3",
    "trial_num": 52,
    "trial_length": 10,
    "click_num": 2,
    "RT": 1088,
    "action": 1,
    "reward": 3.4
  },
  {
    "phase": "TASK",
    "condition": "Cond3",
    "trial_num": 52,
    "trial_length": 10,
    "click_num": 3,
    "RT": 1737,
    "action": 1,
    "reward": 4.6
  },
  {
    "phase": "TASK",
    "condition": "Cond3",
    "trial_num": 52,
    "trial_length": 10,
    "click_num": 4,
    "RT": 2200,
    "action": 0,
    "reward": 4.6
  },
  {
    "phase": "TASK",
    "condition": "Cond3",
    "trial_num": 52,
    "trial_length": 10,
    "click_num": 5,
    "RT": 742,
    "action": 0,
    "reward": 4.6
  },
  {
    "phase": "TASK",
    "condition": "Cond3",
    "trial_num": 52,
    "trial_length": 10,
    "click_num": 6,
    "RT": 636,
    "action": 0,
    "reward": 4.6
  },
  {
    "phase": "TASK",
    "condition": "Cond3",
    "trial_num": 52,
    "trial_length": 10,
    "click_num": 7,
    "RT": 784,
    "action": 0,
    "reward": 4.6
  },
  {
    "phase": "TASK",
    "condition": "Cond3",
    "trial_num": 52,
    "trial_length": 10,
    "click_num": 8,
    "RT": 494,
    "action": 0,
    "reward": 4.6
  },
  {
    "phase": "TASK",
    "condition": "Cond3",
    "trial_num": 52,
    "trial_length": 10,
    "click_num": 9,
    "RT": 815,
    "action": 0,
    "reward": 4.6
  },
  {
    "phase": "TASK",
    "condition": "Cond3",
    "trial_num": 52,
    "trial_length": 10,
    "click_num": 10,
    "RT": 944,
    "action": 0,
    "reward": 4.6
  },
  {
    "phase": "TASK",
    "condition": "Cond3",
    "trial_num": 53,
    "trial_length": 9,
    "click_num": 1,
    "RT": 1199,
    "action": 1,
    "reward": 2.1
  },
  {
    "phase": "TASK",
    "condition": "Cond3",
    "trial_num": 53,
    "trial_length": 9,
    "click_num": 2,
    "RT": 1265,
    "action": 1,
    "reward": 3.2
  },
  {
    "phase": "TASK",
    "condition": "Cond3",
    "trial_num": 53,
    "trial_length": 9,
    "click_num": 3,
    "RT": 1368,
    "action": 1,
    "reward": 2.2
  },
  {
    "phase": "TASK",
    "condition": "Cond3",
    "trial_num": 53,
    "trial_length": 9,
    "click_num": 4,
    "RT": 1703,
    "action": 1,
    "reward": 3.7
  },
  {
    "phase": "TASK",
    "condition": "Cond3",
    "trial_num": 53,
    "trial_length": 9,
    "click_num": 5,
    "RT": 1466,
    "action": 0,
    "reward": 3.7
  },
  {
    "phase": "TASK",
    "condition": "Cond3",
    "trial_num": 53,
    "trial_length": 9,
    "click_num": 6,
    "RT": 854,
    "action": 0,
    "reward": 3.7
  },
  {
    "phase": "TASK",
    "condition": "Cond3",
    "trial_num": 53,
    "trial_length": 9,
    "click_num": 7,
    "RT": 857,
    "action": 0,
    "reward": 3.7
  },
  {
    "phase": "TASK",
    "condition": "Cond3",
    "trial_num": 53,
    "trial_length": 9,
    "click_num": 8,
    "RT": 542,
    "action": 0,
    "reward": 3.7
  },
  {
    "phase": "TASK",
    "condition": "Cond3",
    "trial_num": 53,
    "trial_length": 9,
    "click_num": 9,
    "RT": 512,
    "action": 0,
    "reward": 3.7
  },
  {
    "phase": "TASK",
    "condition": "Cond3",
    "trial_num": 54,
    "trial_length": 8,
    "click_num": 1,
    "RT": 1037,
    "action": 1,
    "reward": 2.5
  },
  {
    "phase": "TASK",
    "condition": "Cond3",
    "trial_num": 54,
    "trial_length": 8,
    "click_num": 2,
    "RT": 1007,
    "action": 1,
    "reward": 3.5
  },
  {
    "phase": "TASK",
    "condition": "Cond3",
    "trial_num": 54,
    "trial_length": 8,
    "click_num": 3,
    "RT": 1040,
    "action": 1,
    "reward": 3.3
  },
  {
    "phase": "TASK",
    "condition": "Cond3",
    "trial_num": 54,
    "trial_length": 8,
    "click_num": 4,
    "RT": 857,
    "action": 1,
    "reward": 3.3
  },
  {
    "phase": "TASK",
    "condition": "Cond3",
    "trial_num": 54,
    "trial_length": 8,
    "click_num": 5,
    "RT": 815,
    "action": 1,
    "reward": 2.8
  },
  {
    "phase": "TASK",
    "condition": "Cond3",
    "trial_num": 54,
    "trial_length": 8,
    "click_num": 6,
    "RT": 1049,
    "action": 1,
    "reward": 3
  },
  {
    "phase": "TASK",
    "condition": "Cond3",
    "trial_num": 54,
    "trial_length": 8,
    "click_num": 7,
    "RT": 783,
    "action": 1,
    "reward": 3.2
  },
  {
    "phase": "TASK",
    "condition": "Cond3",
    "trial_num": 54,
    "trial_length": 8,
    "click_num": 8,
    "RT": 834,
    "action": 1,
    "reward": 3.1
  },
  {
    "phase": "TASK",
    "condition": "Cond3",
    "trial_num": 55,
    "trial_length": 8,
    "click_num": 1,
    "RT": 1261,
    "action": 1,
    "reward": 4.1
  },
  {
    "phase": "TASK",
    "condition": "Cond3",
    "trial_num": 55,
    "trial_length": 8,
    "click_num": 2,
    "RT": 1064,
    "action": 0,
    "reward": 4.1
  },
  {
    "phase": "TASK",
    "condition": "Cond3",
    "trial_num": 55,
    "trial_length": 8,
    "click_num": 3,
    "RT": 489,
    "action": 0,
    "reward": 4.1
  },
  {
    "phase": "TASK",
    "condition": "Cond3",
    "trial_num": 55,
    "trial_length": 8,
    "click_num": 4,
    "RT": 465,
    "action": 0,
    "reward": 4.1
  },
  {
    "phase": "TASK",
    "condition": "Cond3",
    "trial_num": 55,
    "trial_length": 8,
    "click_num": 5,
    "RT": 432,
    "action": 0,
    "reward": 4.1
  },
  {
    "phase": "TASK",
    "condition": "Cond3",
    "trial_num": 55,
    "trial_length": 8,
    "click_num": 6,
    "RT": 489,
    "action": 0,
    "reward": 4.1
  },
  {
    "phase": "TASK",
    "condition": "Cond3",
    "trial_num": 55,
    "trial_length": 8,
    "click_num": 7,
    "RT": 1581,
    "action": 0,
    "reward": 4.1
  },
  {
    "phase": "TASK",
    "condition": "Cond3",
    "trial_num": 55,
    "trial_length": 8,
    "click_num": 8,
    "RT": 915,
    "action": 0,
    "reward": 4.1
  },
  {
    "phase": "TASK",
    "condition": "Cond3",
    "trial_num": 56,
    "trial_length": 8,
    "click_num": 1,
    "RT": 1430,
    "action": 1,
    "reward": 3.1
  },
  {
    "phase": "TASK",
    "condition": "Cond3",
    "trial_num": 56,
    "trial_length": 8,
    "click_num": 2,
    "RT": 1536,
    "action": 1,
    "reward": 3
  },
  {
    "phase": "TASK",
    "condition": "Cond3",
    "trial_num": 56,
    "trial_length": 8,
    "click_num": 3,
    "RT": 1168,
    "action": 1,
    "reward": 1.6
  },
  {
    "phase": "TASK",
    "condition": "Cond3",
    "trial_num": 56,
    "trial_length": 8,
    "click_num": 4,
    "RT": 1128,
    "action": 1,
    "reward": 3.4
  },
  {
    "phase": "TASK",
    "condition": "Cond3",
    "trial_num": 56,
    "trial_length": 8,
    "click_num": 5,
    "RT": 1914,
    "action": 1,
    "reward": 1.9
  },
  {
    "phase": "TASK",
    "condition": "Cond3",
    "trial_num": 56,
    "trial_length": 8,
    "click_num": 6,
    "RT": 1088,
    "action": 1,
    "reward": 3.1
  },
  {
    "phase": "TASK",
    "condition": "Cond3",
    "trial_num": 56,
    "trial_length": 8,
    "click_num": 7,
    "RT": 910,
    "action": 1,
    "reward": 3.2
  },
  {
    "phase": "TASK",
    "condition": "Cond3",
    "trial_num": 56,
    "trial_length": 8,
    "click_num": 8,
    "RT": 1344,
    "action": 1,
    "reward": 2.7
  },
  {
    "phase": "TASK",
    "condition": "Cond3",
    "trial_num": 57,
    "trial_length": 5,
    "click_num": 1,
    "RT": 1116,
    "action": 1,
    "reward": 4.1
  },
  {
    "phase": "TASK",
    "condition": "Cond3",
    "trial_num": 57,
    "trial_length": 5,
    "click_num": 2,
    "RT": 1209,
    "action": 0,
    "reward": 4.1
  },
  {
    "phase": "TASK",
    "condition": "Cond3",
    "trial_num": 57,
    "trial_length": 5,
    "click_num": 3,
    "RT": 599,
    "action": 0,
    "reward": 4.1
  },
  {
    "phase": "TASK",
    "condition": "Cond3",
    "trial_num": 57,
    "trial_length": 5,
    "click_num": 4,
    "RT": 888,
    "action": 0,
    "reward": 4.1
  },
  {
    "phase": "TASK",
    "condition": "Cond3",
    "trial_num": 57,
    "trial_length": 5,
    "click_num": 5,
    "RT": 888,
    "action": 0,
    "reward": 4.1
  },
  {
    "phase": "TASK",
    "condition": "Cond3",
    "trial_num": 58,
    "trial_length": 10,
    "click_num": 1,
    "RT": 1670,
    "action": 1,
    "reward": 2.9
  },
  {
    "phase": "TASK",
    "condition": "Cond3",
    "trial_num": 58,
    "trial_length": 10,
    "click_num": 2,
    "RT": 1152,
    "action": 1,
    "reward": 3
  },
  {
    "phase": "TASK",
    "condition": "Cond3",
    "trial_num": 58,
    "trial_length": 10,
    "click_num": 3,
    "RT": 1203,
    "action": 1,
    "reward": 2.9
  },
  {
    "phase": "TASK",
    "condition": "Cond3",
    "trial_num": 58,
    "trial_length": 10,
    "click_num": 4,
    "RT": 813,
    "action": 1,
    "reward": 3.2
  },
  {
    "phase": "TASK",
    "condition": "Cond3",
    "trial_num": 58,
    "trial_length": 10,
    "click_num": 5,
    "RT": 1096,
    "action": 1,
    "reward": 2.6
  },
  {
    "phase": "TASK",
    "condition": "Cond3",
    "trial_num": 58,
    "trial_length": 10,
    "click_num": 6,
    "RT": 816,
    "action": 1,
    "reward": 2.5
  },
  {
    "phase": "TASK",
    "condition": "Cond3",
    "trial_num": 58,
    "trial_length": 10,
    "click_num": 7,
    "RT": 727,
    "action": 1,
    "reward": 3.9
  },
  {
    "phase": "TASK",
    "condition": "Cond3",
    "trial_num": 58,
    "trial_length": 10,
    "click_num": 8,
    "RT": 1361,
    "action": 0,
    "reward": 3.9
  },
  {
    "phase": "TASK",
    "condition": "Cond3",
    "trial_num": 58,
    "trial_length": 10,
    "click_num": 9,
    "RT": 834,
    "action": 0,
    "reward": 3.9
  },
  {
    "phase": "TASK",
    "condition": "Cond3",
    "trial_num": 58,
    "trial_length": 10,
    "click_num": 10,
    "RT": 527,
    "action": 0,
    "reward": 3.9
  },
  {
    "phase": "TASK",
    "condition": "Cond3",
    "trial_num": 59,
    "trial_length": 8,
    "click_num": 1,
    "RT": 3858,
    "action": 1,
    "reward": 3.4
  },
  {
    "phase": "TASK",
    "condition": "Cond3",
    "trial_num": 59,
    "trial_length": 8,
    "click_num": 2,
    "RT": 1495,
    "action": 1,
    "reward": 4.2
  },
  {
    "phase": "TASK",
    "condition": "Cond3",
    "trial_num": 59,
    "trial_length": 8,
    "click_num": 3,
    "RT": 1555,
    "action": 0,
    "reward": 4.2
  },
  {
    "phase": "TASK",
    "condition": "Cond3",
    "trial_num": 59,
    "trial_length": 8,
    "click_num": 4,
    "RT": 623,
    "action": 0,
    "reward": 4.2
  },
  {
    "phase": "TASK",
    "condition": "Cond3",
    "trial_num": 59,
    "trial_length": 8,
    "click_num": 5,
    "RT": 571,
    "action": 0,
    "reward": 4.2
  },
  {
    "phase": "TASK",
    "condition": "Cond3",
    "trial_num": 59,
    "trial_length": 8,
    "click_num": 6,
    "RT": 523,
    "action": 0,
    "reward": 4.2
  },
  {
    "phase": "TASK",
    "condition": "Cond3",
    "trial_num": 59,
    "trial_length": 8,
    "click_num": 7,
    "RT": 976,
    "action": 0,
    "reward": 4.2
  },
  {
    "phase": "TASK",
    "condition": "Cond3",
    "trial_num": 59,
    "trial_length": 8,
    "click_num": 8,
    "RT": 696,
    "action": 0,
    "reward": 4.2
  },
  {
    "phase": "TASK",
    "condition": "Cond3",
    "trial_num": 60,
    "trial_length": 10,
    "click_num": 1,
    "RT": 1151,
    "action": 1,
    "reward": 2.3
  },
  {
    "phase": "TASK",
    "condition": "Cond3",
    "trial_num": 60,
    "trial_length": 10,
    "click_num": 2,
    "RT": 1215,
    "action": 1,
    "reward": 3.2
  },
  {
    "phase": "TASK",
    "condition": "Cond3",
    "trial_num": 60,
    "trial_length": 10,
    "click_num": 3,
    "RT": 976,
    "action": 1,
    "reward": 2.7
  },
  {
    "phase": "TASK",
    "condition": "Cond3",
    "trial_num": 60,
    "trial_length": 10,
    "click_num": 4,
    "RT": 865,
    "action": 1,
    "reward": 3.2
  },
  {
    "phase": "TASK",
    "condition": "Cond3",
    "trial_num": 60,
    "trial_length": 10,
    "click_num": 5,
    "RT": 992,
    "action": 1,
    "reward": 2.5
  },
  {
    "phase": "TASK",
    "condition": "Cond3",
    "trial_num": 60,
    "trial_length": 10,
    "click_num": 6,
    "RT": 1249,
    "action": 1,
    "reward": 2.3
  },
  {
    "phase": "TASK",
    "condition": "Cond3",
    "trial_num": 60,
    "trial_length": 10,
    "click_num": 7,
    "RT": 847,
    "action": 1,
    "reward": 2.2
  },
  {
    "phase": "TASK",
    "condition": "Cond3",
    "trial_num": 60,
    "trial_length": 10,
    "click_num": 8,
    "RT": 807,
    "action": 1,
    "reward": 3
  },
  {
    "phase": "TASK",
    "condition": "Cond3",
    "trial_num": 60,
    "trial_length": 10,
    "click_num": 9,
    "RT": 1309,
    "action": 1,
    "reward": 3.4
  },
  {
    "phase": "TASK",
    "condition": "Cond3",
    "trial_num": 60,
    "trial_length": 10,
    "click_num": 10,
    "RT": 1726,
    "action": 1,
    "reward": 3.1
  },
  {
    "phase": "TASK",
    "condition": "Cond3",
    "trial_num": 61,
    "trial_length": 5,
    "click_num": 1,
    "RT": 1044,
    "action": 1,
    "reward": 3.2
  },
  {
    "phase": "TASK",
    "condition": "Cond3",
    "trial_num": 61,
    "trial_length": 5,
    "click_num": 2,
    "RT": 1064,
    "action": 1,
    "reward": 4
  },
  {
    "phase": "TASK",
    "condition": "Cond3",
    "trial_num": 61,
    "trial_length": 5,
    "click_num": 3,
    "RT": 1272,
    "action": 0,
    "reward": 4
  },
  {
    "phase": "TASK",
    "condition": "Cond3",
    "trial_num": 61,
    "trial_length": 5,
    "click_num": 4,
    "RT": 624,
    "action": 0,
    "reward": 4
  },
  {
    "phase": "TASK",
    "condition": "Cond3",
    "trial_num": 61,
    "trial_length": 5,
    "click_num": 5,
    "RT": 800,
    "action": 0,
    "reward": 4
  },
  {
    "phase": "TASK",
    "condition": "Cond3",
    "trial_num": 62,
    "trial_length": 9,
    "click_num": 1,
    "RT": 1023,
    "action": 1,
    "reward": 2.4
  },
  {
    "phase": "TASK",
    "condition": "Cond3",
    "trial_num": 62,
    "trial_length": 9,
    "click_num": 2,
    "RT": 1162,
    "action": 1,
    "reward": 2.3
  },
  {
    "phase": "TASK",
    "condition": "Cond3",
    "trial_num": 62,
    "trial_length": 9,
    "click_num": 3,
    "RT": 1095,
    "action": 1,
    "reward": 2.4
  },
  {
    "phase": "TASK",
    "condition": "Cond3",
    "trial_num": 62,
    "trial_length": 9,
    "click_num": 4,
    "RT": 919,
    "action": 1,
    "reward": 2.7
  },
  {
    "phase": "TASK",
    "condition": "Cond3",
    "trial_num": 62,
    "trial_length": 9,
    "click_num": 5,
    "RT": 994,
    "action": 1,
    "reward": 3.8
  },
  {
    "phase": "TASK",
    "condition": "Cond3",
    "trial_num": 62,
    "trial_length": 9,
    "click_num": 6,
    "RT": 1614,
    "action": 0,
    "reward": 3.8
  },
  {
    "phase": "TASK",
    "condition": "Cond3",
    "trial_num": 62,
    "trial_length": 9,
    "click_num": 7,
    "RT": 473,
    "action": 0,
    "reward": 3.8
  },
  {
    "phase": "TASK",
    "condition": "Cond3",
    "trial_num": 62,
    "trial_length": 9,
    "click_num": 8,
    "RT": 519,
    "action": 0,
    "reward": 3.8
  },
  {
    "phase": "TASK",
    "condition": "Cond3",
    "trial_num": 62,
    "trial_length": 9,
    "click_num": 9,
    "RT": 640,
    "action": 0,
    "reward": 3.8
  },
  {
    "phase": "TASK",
    "condition": "Cond3",
    "trial_num": 63,
    "trial_length": 7,
    "click_num": 1,
    "RT": 1477,
    "action": 1,
    "reward": 2.9
  },
  {
    "phase": "TASK",
    "condition": "Cond3",
    "trial_num": 63,
    "trial_length": 7,
    "click_num": 2,
    "RT": 1114,
    "action": 1,
    "reward": 2.8
  },
  {
    "phase": "TASK",
    "condition": "Cond3",
    "trial_num": 63,
    "trial_length": 7,
    "click_num": 3,
    "RT": 1136,
    "action": 1,
    "reward": 2.9
  },
  {
    "phase": "TASK",
    "condition": "Cond3",
    "trial_num": 63,
    "trial_length": 7,
    "click_num": 4,
    "RT": 823,
    "action": 1,
    "reward": 3.5
  },
  {
    "phase": "TASK",
    "condition": "Cond3",
    "trial_num": 63,
    "trial_length": 7,
    "click_num": 5,
    "RT": 1183,
    "action": 1,
    "reward": 2.4
  },
  {
    "phase": "TASK",
    "condition": "Cond3",
    "trial_num": 63,
    "trial_length": 7,
    "click_num": 6,
    "RT": 932,
    "action": 1,
    "reward": 3.2
  },
  {
    "phase": "TASK",
    "condition": "Cond3",
    "trial_num": 63,
    "trial_length": 7,
    "click_num": 7,
    "RT": 941,
    "action": 1,
    "reward": 3.9
  },
  {
    "phase": "TASK",
    "condition": "Cond3",
    "trial_num": 64,
    "trial_length": 5,
    "click_num": 1,
    "RT": 1006,
    "action": 1,
    "reward": 3.9
  },
  {
    "phase": "TASK",
    "condition": "Cond3",
    "trial_num": 64,
    "trial_length": 5,
    "click_num": 2,
    "RT": 1597,
    "action": 0,
    "reward": 3.9
  },
  {
    "phase": "TASK",
    "condition": "Cond3",
    "trial_num": 64,
    "trial_length": 5,
    "click_num": 3,
    "RT": 1149,
    "action": 0,
    "reward": 3.9
  },
  {
    "phase": "TASK",
    "condition": "Cond3",
    "trial_num": 64,
    "trial_length": 5,
    "click_num": 4,
    "RT": 488,
    "action": 0,
    "reward": 3.9
  },
  {
    "phase": "TASK",
    "condition": "Cond3",
    "trial_num": 64,
    "trial_length": 5,
    "click_num": 5,
    "RT": 715,
    "action": 0,
    "reward": 3.9
  },
  {
    "phase": "TASK",
    "condition": "Cond3",
    "trial_num": 65,
    "trial_length": 8,
    "click_num": 1,
    "RT": 989,
    "action": 1,
    "reward": 2.8
  },
  {
    "phase": "TASK",
    "condition": "Cond3",
    "trial_num": 65,
    "trial_length": 8,
    "click_num": 2,
    "RT": 1163,
    "action": 1,
    "reward": 3
  },
  {
    "phase": "TASK",
    "condition": "Cond3",
    "trial_num": 65,
    "trial_length": 8,
    "click_num": 3,
    "RT": 944,
    "action": 1,
    "reward": 2.5
  },
  {
    "phase": "TASK",
    "condition": "Cond3",
    "trial_num": 65,
    "trial_length": 8,
    "click_num": 4,
    "RT": 966,
    "action": 1,
    "reward": 3.2
  },
  {
    "phase": "TASK",
    "condition": "Cond3",
    "trial_num": 65,
    "trial_length": 8,
    "click_num": 5,
    "RT": 823,
    "action": 1,
    "reward": 3.5
  },
  {
    "phase": "TASK",
    "condition": "Cond3",
    "trial_num": 65,
    "trial_length": 8,
    "click_num": 6,
    "RT": 1007,
    "action": 1,
    "reward": 3.4
  },
  {
    "phase": "TASK",
    "condition": "Cond3",
    "trial_num": 65,
    "trial_length": 8,
    "click_num": 7,
    "RT": 881,
    "action": 1,
    "reward": 3
  },
  {
    "phase": "TASK",
    "condition": "Cond3",
    "trial_num": 65,
    "trial_length": 8,
    "click_num": 8,
    "RT": 824,
    "action": 1,
    "reward": 1.9
  },
  {
    "phase": "TASK",
    "condition": "Cond3",
    "trial_num": 66,
    "trial_length": 6,
    "click_num": 1,
    "RT": 1725,
    "action": 1,
    "reward": 3.1
  },
  {
    "phase": "TASK",
    "condition": "Cond3",
    "trial_num": 66,
    "trial_length": 6,
    "click_num": 2,
    "RT": 1080,
    "action": 1,
    "reward": 2.7
  },
  {
    "phase": "TASK",
    "condition": "Cond3",
    "trial_num": 66,
    "trial_length": 6,
    "click_num": 3,
    "RT": 1041,
    "action": 1,
    "reward": 2.9
  },
  {
    "phase": "TASK",
    "condition": "Cond3",
    "trial_num": 66,
    "trial_length": 6,
    "click_num": 4,
    "RT": 896,
    "action": 1,
    "reward": 3.2
  },
  {
    "phase": "TASK",
    "condition": "Cond3",
    "trial_num": 66,
    "trial_length": 6,
    "click_num": 5,
    "RT": 1032,
    "action": 1,
    "reward": 4.1
  },
  {
    "phase": "TASK",
    "condition": "Cond3",
    "trial_num": 66,
    "trial_length": 6,
    "click_num": 6,
    "RT": 1303,
    "action": 0,
    "reward": 4.1
  },
  {
    "phase": "TASK",
    "condition": "Cond3",
    "trial_num": 67,
    "trial_length": 5,
    "click_num": 1,
    "RT": 1060,
    "action": 1,
    "reward": 3.1
  },
  {
    "phase": "TASK",
    "condition": "Cond3",
    "trial_num": 67,
    "trial_length": 5,
    "click_num": 2,
    "RT": 1223,
    "action": 1,
    "reward": 2.9
  },
  {
    "phase": "TASK",
    "condition": "Cond3",
    "trial_num": 67,
    "trial_length": 5,
    "click_num": 3,
    "RT": 1019,
    "action": 1,
    "reward": 2.4
  },
  {
    "phase": "TASK",
    "condition": "Cond3",
    "trial_num": 67,
    "trial_length": 5,
    "click_num": 4,
    "RT": 979,
    "action": 1,
    "reward": 3.4
  },
  {
    "phase": "TASK",
    "condition": "Cond3",
    "trial_num": 67,
    "trial_length": 5,
    "click_num": 5,
    "RT": 1445,
    "action": 1,
    "reward": 2.2
  },
  {
    "phase": "TASK",
    "condition": "Cond3",
    "trial_num": 68,
    "trial_length": 6,
    "click_num": 1,
    "RT": 943,
    "action": 1,
    "reward": 3.1
  },
  {
    "phase": "TASK",
    "condition": "Cond3",
    "trial_num": 68,
    "trial_length": 6,
    "click_num": 2,
    "RT": 1321,
    "action": 1,
    "reward": 1.9
  },
  {
    "phase": "TASK",
    "condition": "Cond3",
    "trial_num": 68,
    "trial_length": 6,
    "click_num": 3,
    "RT": 1064,
    "action": 1,
    "reward": 3.3
  },
  {
    "phase": "TASK",
    "condition": "Cond3",
    "trial_num": 68,
    "trial_length": 6,
    "click_num": 4,
    "RT": 887,
    "action": 1,
    "reward": 2.8
  },
  {
    "phase": "TASK",
    "condition": "Cond3",
    "trial_num": 68,
    "trial_length": 6,
    "click_num": 5,
    "RT": 1128,
    "action": 1,
    "reward": 3.2
  },
  {
    "phase": "TASK",
    "condition": "Cond3",
    "trial_num": 68,
    "trial_length": 6,
    "click_num": 6,
    "RT": 1668,
    "action": 1,
    "reward": 1.7
  },
  {
    "phase": "TASK",
    "condition": "Cond3",
    "trial_num": 69,
    "trial_length": 5,
    "click_num": 1,
    "RT": 847,
    "action": 1,
    "reward": 4.4
  },
  {
    "phase": "TASK",
    "condition": "Cond3",
    "trial_num": 69,
    "trial_length": 5,
    "click_num": 2,
    "RT": 1198,
    "action": 0,
    "reward": 4.4
  },
  {
    "phase": "TASK",
    "condition": "Cond3",
    "trial_num": 69,
    "trial_length": 5,
    "click_num": 3,
    "RT": 802,
    "action": 0,
    "reward": 4.4
  },
  {
    "phase": "TASK",
    "condition": "Cond3",
    "trial_num": 69,
    "trial_length": 5,
    "click_num": 4,
    "RT": 552,
    "action": 0,
    "reward": 4.4
  },
  {
    "phase": "TASK",
    "condition": "Cond3",
    "trial_num": 69,
    "trial_length": 5,
    "click_num": 5,
    "RT": 520,
    "action": 0,
    "reward": 4.4
  },
  {
    "phase": "TASK",
    "condition": "Cond3",
    "trial_num": 70,
    "trial_length": 9,
    "click_num": 1,
    "RT": 1024,
    "action": 1,
    "reward": 3
  },
  {
    "phase": "TASK",
    "condition": "Cond3",
    "trial_num": 70,
    "trial_length": 9,
    "click_num": 2,
    "RT": 959,
    "action": 1,
    "reward": 2.9
  },
  {
    "phase": "TASK",
    "condition": "Cond3",
    "trial_num": 70,
    "trial_length": 9,
    "click_num": 3,
    "RT": 752,
    "action": 1,
    "reward": 3.3
  },
  {
    "phase": "TASK",
    "condition": "Cond3",
    "trial_num": 70,
    "trial_length": 9,
    "click_num": 4,
    "RT": 756,
    "action": 1,
    "reward": 2.6
  },
  {
    "phase": "TASK",
    "condition": "Cond3",
    "trial_num": 70,
    "trial_length": 9,
    "click_num": 5,
    "RT": 796,
    "action": 1,
    "reward": 3
  },
  {
    "phase": "TASK",
    "condition": "Cond3",
    "trial_num": 70,
    "trial_length": 9,
    "click_num": 6,
    "RT": 753,
    "action": 1,
    "reward": 3.2
  },
  {
    "phase": "TASK",
    "condition": "Cond3",
    "trial_num": 70,
    "trial_length": 9,
    "click_num": 7,
    "RT": 703,
    "action": 1,
    "reward": 3.3
  },
  {
    "phase": "TASK",
    "condition": "Cond3",
    "trial_num": 70,
    "trial_length": 9,
    "click_num": 8,
    "RT": 1001,
    "action": 1,
    "reward": 3.2
  },
  {
    "phase": "TASK",
    "condition": "Cond3",
    "trial_num": 70,
    "trial_length": 9,
    "click_num": 9,
    "RT": 749,
    "action": 1,
    "reward": 2.6
  },
  {
    "phase": "TASK",
    "condition": "Cond3",
    "trial_num": 71,
    "trial_length": 10,
    "click_num": 1,
    "RT": 871,
    "action": 1,
    "reward": 2.7
  },
  {
    "phase": "TASK",
    "condition": "Cond3",
    "trial_num": 71,
    "trial_length": 10,
    "click_num": 2,
    "RT": 1679,
    "action": 1,
    "reward": 2.9
  },
  {
    "phase": "TASK",
    "condition": "Cond3",
    "trial_num": 71,
    "trial_length": 10,
    "click_num": 3,
    "RT": 762,
    "action": 1,
    "reward": 2.9
  },
  {
    "phase": "TASK",
    "condition": "Cond3",
    "trial_num": 71,
    "trial_length": 10,
    "click_num": 4,
    "RT": 784,
    "action": 1,
    "reward": 4.1
  },
  {
    "phase": "TASK",
    "condition": "Cond3",
    "trial_num": 71,
    "trial_length": 10,
    "click_num": 5,
    "RT": 1160,
    "action": 0,
    "reward": 4.1
  },
  {
    "phase": "TASK",
    "condition": "Cond3",
    "trial_num": 71,
    "trial_length": 10,
    "click_num": 6,
    "RT": 522,
    "action": 0,
    "reward": 4.1
  },
  {
    "phase": "TASK",
    "condition": "Cond3",
    "trial_num": 71,
    "trial_length": 10,
    "click_num": 7,
    "RT": 1654,
    "action": 0,
    "reward": 4.1
  },
  {
    "phase": "TASK",
    "condition": "Cond3",
    "trial_num": 71,
    "trial_length": 10,
    "click_num": 8,
    "RT": 560,
    "action": 0,
    "reward": 4.1
  },
  {
    "phase": "TASK",
    "condition": "Cond3",
    "trial_num": 71,
    "trial_length": 10,
    "click_num": 9,
    "RT": 839,
    "action": 0,
    "reward": 4.1
  },
  {
    "phase": "TASK",
    "condition": "Cond3",
    "trial_num": 71,
    "trial_length": 10,
    "click_num": 10,
    "RT": 522,
    "action": 0,
    "reward": 4.1
  },
  {
    "phase": "TASK",
    "condition": "Cond3",
    "trial_num": 72,
    "trial_length": 6,
    "click_num": 1,
    "RT": 1141,
    "action": 1,
    "reward": 2.7
  },
  {
    "phase": "TASK",
    "condition": "Cond3",
    "trial_num": 72,
    "trial_length": 6,
    "click_num": 2,
    "RT": 1096,
    "action": 1,
    "reward": 3.6
  },
  {
    "phase": "TASK",
    "condition": "Cond3",
    "trial_num": 72,
    "trial_length": 6,
    "click_num": 3,
    "RT": 1672,
    "action": 1,
    "reward": 4.4
  },
  {
    "phase": "TASK",
    "condition": "Cond3",
    "trial_num": 72,
    "trial_length": 6,
    "click_num": 4,
    "RT": 1202,
    "action": 0,
    "reward": 4.4
  },
  {
    "phase": "TASK",
    "condition": "Cond3",
    "trial_num": 72,
    "trial_length": 6,
    "click_num": 5,
    "RT": 528,
    "action": 0,
    "reward": 4.4
  },
  {
    "phase": "TASK",
    "condition": "Cond3",
    "trial_num": 72,
    "trial_length": 6,
    "click_num": 6,
    "RT": 454,
    "action": 0,
    "reward": 4.4
  },
  {
    "phase": "TASK",
    "condition": "Cond3",
    "trial_num": 73,
    "trial_length": 8,
    "click_num": 1,
    "RT": 1112,
    "action": 1,
    "reward": 3.3
  },
  {
    "phase": "TASK",
    "condition": "Cond3",
    "trial_num": 73,
    "trial_length": 8,
    "click_num": 2,
    "RT": 1261,
    "action": 1,
    "reward": 2.2
  },
  {
    "phase": "TASK",
    "condition": "Cond3",
    "trial_num": 73,
    "trial_length": 8,
    "click_num": 3,
    "RT": 1048,
    "action": 1,
    "reward": 2.2
  },
  {
    "phase": "TASK",
    "condition": "Cond3",
    "trial_num": 73,
    "trial_length": 8,
    "click_num": 4,
    "RT": 739,
    "action": 1,
    "reward": 2.9
  },
  {
    "phase": "TASK",
    "condition": "Cond3",
    "trial_num": 73,
    "trial_length": 8,
    "click_num": 5,
    "RT": 1454,
    "action": 1,
    "reward": 4.1
  },
  {
    "phase": "TASK",
    "condition": "Cond3",
    "trial_num": 73,
    "trial_length": 8,
    "click_num": 6,
    "RT": 1352,
    "action": 0,
    "reward": 4.1
  },
  {
    "phase": "TASK",
    "condition": "Cond3",
    "trial_num": 73,
    "trial_length": 8,
    "click_num": 7,
    "RT": 550,
    "action": 0,
    "reward": 4.1
  },
  {
    "phase": "TASK",
    "condition": "Cond3",
    "trial_num": 73,
    "trial_length": 8,
    "click_num": 8,
    "RT": 561,
    "action": 0,
    "reward": 4.1
  },
  {
    "phase": "TASK",
    "condition": "Cond3",
    "trial_num": 74,
    "trial_length": 9,
    "click_num": 1,
    "RT": 901,
    "action": 1,
    "reward": 3.7
  },
  {
    "phase": "TASK",
    "condition": "Cond3",
    "trial_num": 74,
    "trial_length": 9,
    "click_num": 2,
    "RT": 1544,
    "action": 0,
    "reward": 3.7
  },
  {
    "phase": "TASK",
    "condition": "Cond3",
    "trial_num": 74,
    "trial_length": 9,
    "click_num": 3,
    "RT": 545,
    "action": 0,
    "reward": 3.7
  },
  {
    "phase": "TASK",
    "condition": "Cond3",
    "trial_num": 74,
    "trial_length": 9,
    "click_num": 4,
    "RT": 897,
    "action": 0,
    "reward": 3.7
  },
  {
    "phase": "TASK",
    "condition": "Cond3",
    "trial_num": 74,
    "trial_length": 9,
    "click_num": 5,
    "RT": 487,
    "action": 0,
    "reward": 3.7
  },
  {
    "phase": "TASK",
    "condition": "Cond3",
    "trial_num": 74,
    "trial_length": 9,
    "click_num": 6,
    "RT": 615,
    "action": 0,
    "reward": 3.7
  },
  {
    "phase": "TASK",
    "condition": "Cond3",
    "trial_num": 74,
    "trial_length": 9,
    "click_num": 7,
    "RT": 584,
    "action": 0,
    "reward": 3.7
  },
  {
    "phase": "TASK",
    "condition": "Cond3",
    "trial_num": 74,
    "trial_length": 9,
    "click_num": 8,
    "RT": 593,
    "action": 0,
    "reward": 3.7
  },
  {
    "phase": "TASK",
    "condition": "Cond3",
    "trial_num": 74,
    "trial_length": 9,
    "click_num": 9,
    "RT": 551,
    "action": 0,
    "reward": 3.7
  },
  {
    "phase": "TASK",
    "condition": "Cond3",
    "trial_num": 75,
    "trial_length": 5,
    "click_num": 1,
    "RT": 1630,
    "action": 1,
    "reward": 3.9
  },
  {
    "phase": "TASK",
    "condition": "Cond3",
    "trial_num": 75,
    "trial_length": 5,
    "click_num": 2,
    "RT": 1039,
    "action": 0,
    "reward": 3.9
  },
  {
    "phase": "TASK",
    "condition": "Cond3",
    "trial_num": 75,
    "trial_length": 5,
    "click_num": 3,
    "RT": 488,
    "action": 0,
    "reward": 3.9
  },
  {
    "phase": "TASK",
    "condition": "Cond3",
    "trial_num": 75,
    "trial_length": 5,
    "click_num": 4,
    "RT": 505,
    "action": 0,
    "reward": 3.9
  },
  {
    "phase": "TASK",
    "condition": "Cond3",
    "trial_num": 75,
    "trial_length": 5,
    "click_num": 5,
    "RT": 687,
    "action": 0,
    "reward": 3.9
  },
  {
    "phase": "TASK",
    "condition": "Cond3",
    "trial_num": 76,
    "trial_length": 5,
    "click_num": 1,
    "RT": 1424,
    "action": 1,
    "reward": 2.5
  },
  {
    "phase": "TASK",
    "condition": "Cond3",
    "trial_num": 76,
    "trial_length": 5,
    "click_num": 2,
    "RT": 897,
    "action": 1,
    "reward": 2.3
  },
  {
    "phase": "TASK",
    "condition": "Cond3",
    "trial_num": 76,
    "trial_length": 5,
    "click_num": 3,
    "RT": 1078,
    "action": 1,
    "reward": 3.4
  },
  {
    "phase": "TASK",
    "condition": "Cond3",
    "trial_num": 76,
    "trial_length": 5,
    "click_num": 4,
    "RT": 1016,
    "action": 1,
    "reward": 2.6
  },
  {
    "phase": "TASK",
    "condition": "Cond3",
    "trial_num": 76,
    "trial_length": 5,
    "click_num": 5,
    "RT": 855,
    "action": 1,
    "reward": 2.1
  },
  {
    "phase": "TASK",
    "condition": "Cond3",
    "trial_num": 77,
    "trial_length": 8,
    "click_num": 1,
    "RT": 1286,
    "action": 1,
    "reward": 3.4
  },
  {
    "phase": "TASK",
    "condition": "Cond3",
    "trial_num": 77,
    "trial_length": 8,
    "click_num": 2,
    "RT": 1096,
    "action": 1,
    "reward": 3.4
  },
  {
    "phase": "TASK",
    "condition": "Cond3",
    "trial_num": 77,
    "trial_length": 8,
    "click_num": 3,
    "RT": 1007,
    "action": 1,
    "reward": 3
  },
  {
    "phase": "TASK",
    "condition": "Cond3",
    "trial_num": 77,
    "trial_length": 8,
    "click_num": 4,
    "RT": 820,
    "action": 1,
    "reward": 2.5
  },
  {
    "phase": "TASK",
    "condition": "Cond3",
    "trial_num": 77,
    "trial_length": 8,
    "click_num": 5,
    "RT": 855,
    "action": 1,
    "reward": 2.7
  },
  {
    "phase": "TASK",
    "condition": "Cond3",
    "trial_num": 77,
    "trial_length": 8,
    "click_num": 6,
    "RT": 894,
    "action": 1,
    "reward": 3.7
  },
  {
    "phase": "TASK",
    "condition": "Cond3",
    "trial_num": 77,
    "trial_length": 8,
    "click_num": 7,
    "RT": 1264,
    "action": 0,
    "reward": 3.7
  },
  {
    "phase": "TASK",
    "condition": "Cond3",
    "trial_num": 77,
    "trial_length": 8,
    "click_num": 8,
    "RT": 784,
    "action": 0,
    "reward": 3.7
  },
  {
    "phase": "TASK",
    "condition": "Cond3",
    "trial_num": 78,
    "trial_length": 6,
    "click_num": 1,
    "RT": 1013,
    "action": 1,
    "reward": 3.3
  },
  {
    "phase": "TASK",
    "condition": "Cond3",
    "trial_num": 78,
    "trial_length": 6,
    "click_num": 2,
    "RT": 1243,
    "action": 1,
    "reward": 3.3
  },
  {
    "phase": "TASK",
    "condition": "Cond3",
    "trial_num": 78,
