[{"phase":"TASK","trial_num":1,"trial_length":5,"click_num":1,"RT":10416,"action":1,"reward":-2.5},{"phase":"TASK","trial_num":1,"trial_length":5,"click_num":2,"RT":17119.60000000149,"action":1,"reward":-2},{"phase":"TASK","trial_num":1,"trial_length":5,"click_num":3,"RT":7927.800000000745,"action":1,"reward":-3.2},{"phase":"TASK","trial_num":1,"trial_length":5,"click_num":4,"RT":25816,"action":1,"reward":-2},{"phase":"TASK","trial_num":1,"trial_length":5,"click_num":5,"RT":4280.099999997765,"action":0,"reward":-2},{"phase":"TASK","trial_num":2,"trial_length":9,"click_num":1,"RT":3718.900000002235,"action":1,"reward":-3.6},{"phase":"TASK","trial_num":2,"trial_length":9,"click_num":2,"RT":3400,"action":1,"reward":-4.4},{"phase":"TASK","trial_num":2,"trial_length":9,"click_num":3,"RT":3208,"action":1,"reward":-3.3},{"phase":"TASK","trial_num":2,"trial_length":9,"click_num":4,"RT":5991.89999999851,"action":1,"reward":-2.4},{"phase":"TASK","trial_num":2,"trial_length":9,"click_num":5,"RT":9848.10000000149,"action":1,"reward":-3.2},{"phase":"TASK","trial_num":2,"trial_length":9,"click_num":6,"RT":3855.89999999851,"action":1,"reward":-2.9},{"phase":"TASK","trial_num":2,"trial_length":9,"click_num":7,"RT":3672.10000000149,"action":1,"reward":-3.5},{"phase":"TASK","trial_num":2,"trial_length":9,"click_num":8,"RT":2424,"action":0,"reward":-2.4},{"phase":"TASK","trial_num":2,"trial_length":9,"click_num":9,"RT":1639.8999999985099,"action":0,"reward":-2.4},{"phase":"TASK","trial_num":3,"trial_length":6,"click_num":1,"RT":4287.800000000745,"action":1,"reward":-2.7},{"phase":"TASK","trial_num":3,"trial_length":6,"click_num":2,"RT":3712.099999997765,"action":1,"reward":-2.7},{"phase":"TASK","trial_num":3,"trial_length":6,"click_num":3,"RT":2624,"action":1,"reward":-3.4},{"phase":"TASK","trial_num":3,"trial_length":6,"click_num":4,"RT":2759.900000002235,"action":1,"reward":-2.7},{"phase":"TASK","trial_num":3,"trial_length":6,"click_num":5,"RT":5344,"action":1,"reward":-3.4},{"phase":"TASK","trial_num":3,"trial_length":6,"click_num":6,"RT":1544,"action":0,"reward":-2.7},{"phase":"TASK","trial_num":4,"trial_length":6,"click_num":1,"RT":1647.800000000745,"action":1,"reward":-2},{"phase":"TASK","trial_num":4,"trial_length":6,"click_num":2,"RT":3848,"action":1,"reward":-2.8},{"phase":"TASK","trial_num":4,"trial_length":6,"click_num":3,"RT":1480,"action":0,"reward":-2},{"phase":"TASK","trial_num":4,"trial_length":6,"click_num":4,"RT":5136,"action":0,"reward":-2},{"phase":"TASK","trial_num":4,"trial_length":6,"click_num":5,"RT":1456,"action":1,"reward":-3.5},{"phase":"TASK","trial_num":4,"trial_length":6,"click_num":6,"RT":1080,"action":0,"reward":-2},{"phase":"TASK","trial_num":5,"trial_length":7,"click_num":1,"RT":1655.6000000014901,"action":1,"reward":-2.4},{"phase":"TASK","trial_num":5,"trial_length":7,"click_num":2,"RT":4376.099999997765,"action":1,"reward":-3.1},{"phase":"TASK","trial_num":5,"trial_length":7,"click_num":3,"RT":1824,"action":1,"reward":-3.5},{"phase":"TASK","trial_num":5,"trial_length":7,"click_num":4,"RT":2151.900000002235,"action":1,"reward":-3.4},{"phase":"TASK","trial_num":5,"trial_length":7,"click_num":5,"RT":1464.0999999977648,"action":0,"reward":-2.4},{"phase":"TASK","trial_num":5,"trial_length":7,"click_num":6,"RT":1095.800000000745,"action":0,"reward":-2.4},{"phase":"TASK","trial_num":5,"trial_length":7,"click_num":7,"RT":872.1000000014901,"action":0,"reward":-2.4},{"phase":"TASK","trial_num":6,"trial_length":10,"click_num":1,"RT":1591.699999999255,"action":1,"reward":-3.7},{"phase":"TASK","trial_num":6,"trial_length":10,"click_num":2,"RT":1768.0999999977648,"action":1,"reward":-3.1},{"phase":"TASK","trial_num":6,"trial_length":10,"click_num":3,"RT":2303.900000002235,"action":1,"reward":-3.4},{"phase":"TASK","trial_num":6,"trial_length":10,"click_num":4,"RT":1224.0999999977648,"action":1,"reward":-3.1},{"phase":"TASK","trial_num":6,"trial_length":10,"click_num":5,"RT":1687.9000000022352,"action":1,"reward":-3.1},{"phase":"TASK","trial_num":6,"trial_length":10,"click_num":6,"RT":1528.0999999977648,"action":1,"reward":-3.3},{"phase":"TASK","trial_num":6,"trial_length":10,"click_num":7,"RT":1495.9000000022352,"action":1,"reward":-3.2},{"phase":"TASK","trial_num":6,"trial_length":10,"click_num":8,"RT":1551.8999999985099,"action":1,"reward":-3.5},{"phase":"TASK","trial_num":6,"trial_length":10,"click_num":9,"RT":1496.1000000014901,"action":0,"reward":-3.1},{"phase":"TASK","trial_num":6,"trial_length":10,"click_num":10,"RT":951.8999999985099,"action":0,"reward":-3.1},{"phase":"TASK","trial_num":7,"trial_length":7,"click_num":1,"RT":1191.3999999985099,"action":1,"reward":-3.6},{"phase":"TASK","trial_num":7,"trial_length":7,"click_num":2,"RT":1799.9000000022352,"action":1,"reward":-3.2},{"phase":"TASK","trial_num":7,"trial_length":7,"click_num":3,"RT":1727.8999999985099,"action":1,"reward":-2.4},{"phase":"TASK","trial_num":7,"trial_length":7,"click_num":4,"RT":1784,"action":1,"reward":-2.3},{"phase":"TASK","trial_num":7,"trial_length":7,"click_num":5,"RT":2080.10000000149,"action":1,"reward":-3},{"phase":"TASK","trial_num":7,"trial_length":7,"click_num":6,"RT":2760,"action":1,"reward":-3.4},{"phase":"TASK","trial_num":7,"trial_length":7,"click_num":7,"RT":1224.199999999255,"action":0,"reward":-2.3},{"phase":"TASK","trial_num":8,"trial_length":8,"click_num":1,"RT":1199.699999999255,"action":1,"reward":-3.5},{"phase":"TASK","trial_num":8,"trial_length":8,"click_num":2,"RT":1576,"action":1,"reward":-2.9},{"phase":"TASK","trial_num":8,"trial_length":8,"click_num":3,"RT":2264.099999997765,"action":1,"reward":-3.1},{"phase":"TASK","trial_num":8,"trial_length":8,"click_num":4,"RT":2336,"action":1,"reward":-3.4},{"phase":"TASK","trial_num":8,"trial_length":8,"click_num":5,"RT":1528,"action":1,"reward":-3.7},{"phase":"TASK","trial_num":8,"trial_length":8,"click_num":6,"RT":1304,"action":1,"reward":-2.9},{"phase":"TASK","trial_num":8,"trial_length":8,"click_num":7,"RT":1031.800000000745,"action":0,"reward":-2.9},{"phase":"TASK","trial_num":8,"trial_length":8,"click_num":8,"RT":784.1000000014901,"action":0,"reward":-2.9},{"phase":"TASK","trial_num":9,"trial_length":8,"click_num":1,"RT":1295.800000000745,"action":1,"reward":-3.5},{"phase":"TASK","trial_num":9,"trial_length":8,"click_num":2,"RT":1720.0999999977648,"action":1,"reward":-4.6},{"phase":"TASK","trial_num":9,"trial_length":8,"click_num":3,"RT":1863.9000000022352,"action":1,"reward":-3.3},{"phase":"TASK","trial_num":9,"trial_length":8,"click_num":4,"RT":1288.0999999977648,"action":1,"reward":-2.1},{"phase":"TASK","trial_num":9,"trial_length":8,"click_num":5,"RT":1831.800000000745,"action":1,"reward":-1.6},{"phase":"TASK","trial_num":9,"trial_length":8,"click_num":6,"RT":4072.10000000149,"action":0,"reward":-1.6},{"phase":"TASK","trial_num":9,"trial_length":8,"click_num":7,"RT":672,"action":0,"reward":-1.6},{"phase":"TASK","trial_num":9,"trial_length":8,"click_num":8,"RT":728,"action":0,"reward":-1.6},{"phase":"TASK","trial_num":10,"trial_length":7,"click_num":1,"RT":1479.699999999255,"action":1,"reward":-3.5},{"phase":"TASK","trial_num":10,"trial_length":7,"click_num":2,"RT":2120,"action":1,"reward":-3.9},{"phase":"TASK","trial_num":10,"trial_length":7,"click_num":3,"RT":1128,"action":1,"reward":-2.7},{"phase":"TASK","trial_num":10,"trial_length":7,"click_num":4,"RT":1680,"action":1,"reward":-3.2},{"phase":"TASK","trial_num":10,"trial_length":7,"click_num":5,"RT":1152,"action":1,"reward":-2.2},{"phase":"TASK","trial_num":10,"trial_length":7,"click_num":6,"RT":2456.099999997765,"action":0,"reward":-2.2},{"phase":"TASK","trial_num":10,"trial_length":7,"click_num":7,"RT":1511.9000000022352,"action":0,"reward":-2.2},{"phase":"TASK","trial_num":11,"trial_length":6,"click_num":1,"RT":959.5999999977648,"action":1,"reward":-2.7},{"phase":"TASK","trial_num":11,"trial_length":6,"click_num":2,"RT":1416.1000000014901,"action":1,"reward":-2.4},{"phase":"TASK","trial_num":11,"trial_length":6,"click_num":3,"RT":1432.3999999985099,"action":1,"reward":-2.6},{"phase":"TASK","trial_num":11,"trial_length":6,"click_num":4,"RT":1031.6000000014901,"action":1,"reward":-2.9},{"phase":"TASK","trial_num":11,"trial_length":6,"click_num":5,"RT":976,"action":1,"reward":-3.5},{"phase":"TASK","trial_num":11,"trial_length":6,"click_num":6,"RT":1367.8999999985099,"action":1,"reward":-4},{"phase":"TASK","trial_num":12,"trial_length":9,"click_num":1,"RT":1064.199999999255,"action":1,"reward":-2.6},{"phase":"TASK","trial_num":12,"trial_length":9,"click_num":2,"RT":1119.5,"action":1,"reward":-3.5},{"phase":"TASK","trial_num":12,"trial_length":9,"click_num":3,"RT":968,"action":1,"reward":-3.9},{"phase":"TASK","trial_num":12,"trial_length":9,"click_num":4,"RT":1168,"action":1,"reward":-2.9},{"phase":"TASK","trial_num":12,"trial_length":9,"click_num":5,"RT":1368,"action":1,"reward":-2},{"phase":"TASK","trial_num":12,"trial_length":9,"click_num":6,"RT":1816,"action":1,"reward":-4},{"phase":"TASK","trial_num":12,"trial_length":9,"click_num":7,"RT":1480,"action":0,"reward":-2},{"phase":"TASK","trial_num":12,"trial_length":9,"click_num":8,"RT":775.8999999985099,"action":0,"reward":-2},{"phase":"TASK","trial_num":12,"trial_length":9,"click_num":9,"RT":744,"action":0,"reward":-2},{"phase":"TASK","trial_num":13,"trial_length":10,"click_num":1,"RT":928.3999999985099,"action":1,"reward":-3.6},{"phase":"TASK","trial_num":13,"trial_length":10,"click_num":2,"RT":1247.2000000029802,"action":1,"reward":-3.8},{"phase":"TASK","trial_num":13,"trial_length":10,"click_num":3,"RT":1416.199999999255,"action":1,"reward":-1.9},{"phase":"TASK","trial_num":13,"trial_length":10,"click_num":4,"RT":4448,"action":0,"reward":-1.9},{"phase":"TASK","trial_num":13,"trial_length":10,"click_num":5,"RT":1208,"action":1,"reward":-2.8},{"phase":"TASK","trial_num":13,"trial_length":10,"click_num":6,"RT":904,"action":0,"reward":-1.9},{"phase":"TASK","trial_num":13,"trial_length":10,"click_num":7,"RT":624.0999999977648,"action":0,"reward":-1.9},{"phase":"TASK","trial_num":13,"trial_length":10,"click_num":8,"RT":655.9000000022352,"action":0,"reward":-1.9},{"phase":"TASK","trial_num":13,"trial_length":10,"click_num":9,"RT":712,"action":0,"reward":-1.9},{"phase":"TASK","trial_num":13,"trial_length":10,"click_num":10,"RT":1256,"action":0,"reward":-1.9},{"phase":"TASK","trial_num":14,"trial_length":9,"click_num":1,"RT":1303.8999999985099,"action":1,"reward":-3.2},{"phase":"TASK","trial_num":14,"trial_length":9,"click_num":2,"RT":1424.6000000014901,"action":1,"reward":-3.3},{"phase":"TASK","trial_num":14,"trial_length":9,"click_num":3,"RT":1135.300000000745,"action":1,"reward":-1.7},{"phase":"TASK","trial_num":14,"trial_length":9,"click_num":4,"RT":2576,"action":1,"reward":-3.3},{"phase":"TASK","trial_num":14,"trial_length":9,"click_num":5,"RT":904,"action":0,"reward":-1.7},{"phase":"TASK","trial_num":14,"trial_length":9,"click_num":6,"RT":648.0999999977648,"action":0,"reward":-1.7},{"phase":"TASK","trial_num":14,"trial_length":9,"click_num":7,"RT":648,"action":0,"reward":-1.7},{"phase":"TASK","trial_num":14,"trial_length":9,"click_num":8,"RT":1151.9000000022352,"action":0,"reward":-1.7},{"phase":"TASK","trial_num":14,"trial_length":9,"click_num":9,"RT":632,"action":0,"reward":-1.7},{"phase":"TASK","trial_num":15,"trial_length":7,"click_num":1,"RT":943.6999999992549,"action":1,"reward":-3},{"phase":"TASK","trial_num":15,"trial_length":7,"click_num":2,"RT":1215.800000000745,"action":1,"reward":-2.3},{"phase":"TASK","trial_num":15,"trial_length":7,"click_num":3,"RT":1536,"action":1,"reward":-4.4},{"phase":"TASK","trial_num":15,"trial_length":7,"click_num":4,"RT":1168,"action":1,"reward":-3.3},{"phase":"TASK","trial_num":15,"trial_length":7,"click_num":5,"RT":1119.8999999985099,"action":1,"reward":-3.2},{"phase":"TASK","trial_num":15,"trial_length":7,"click_num":6,"RT":952.1000000014901,"action":0,"reward":-2.3},{"phase":"TASK","trial_num":15,"trial_length":7,"click_num":7,"RT":720,"action":0,"reward":-2.3},{"phase":"TASK","trial_num":16,"trial_length":6,"click_num":1,"RT":1151.6000000014901,"action":1,"reward":-3.6},{"phase":"TASK","trial_num":16,"trial_length":6,"click_num":2,"RT":1784,"action":1,"reward":-3.1},{"phase":"TASK","trial_num":16,"trial_length":6,"click_num":3,"RT":1456.0999999977648,"action":1,"reward":-4.1},{"phase":"TASK","trial_num":16,"trial_length":6,"click_num":4,"RT":1360,"action":1,"reward":-3.6},{"phase":"TASK","trial_num":16,"trial_length":6,"click_num":5,"RT":2040,"action":0,"reward":-3.1},{"phase":"TASK","trial_num":16,"trial_length":6,"click_num":6,"RT":664,"action":0,"reward":-3.1},{"phase":"TASK","trial_num":17,"trial_length":9,"click_num":1,"RT":879.8000000007451,"action":1,"reward":-2.6},{"phase":"TASK","trial_num":17,"trial_length":9,"click_num":2,"RT":1072.199999999255,"action":1,"reward":-3.8},{"phase":"TASK","trial_num":17,"trial_length":9,"click_num":3,"RT":1143.800000000745,"action":1,"reward":-3.8},{"phase":"TASK","trial_num":17,"trial_length":9,"click_num":4,"RT":1016,"action":1,"reward":-2.8},{"phase":"TASK","trial_num":17,"trial_length":9,"click_num":5,"RT":1160.0999999977648,"action":1,"reward":-2.4},{"phase":"TASK","trial_num":17,"trial_length":9,"click_num":6,"RT":1719.9000000022352,"action":1,"reward":-2},{"phase":"TASK","trial_num":17,"trial_length":9,"click_num":7,"RT":1672,"action":1,"reward":-1.4},{"phase":"TASK","trial_num":17,"trial_length":9,"click_num":8,"RT":2592,"action":0,"reward":-1.4},{"phase":"TASK","trial_num":17,"trial_length":9,"click_num":9,"RT":600.0999999977648,"action":0,"reward":-1.4},{"phase":"TASK","trial_num":18,"trial_length":6,"click_num":1,"RT":943.6000000014901,"action":1,"reward":-3.3},{"phase":"TASK","trial_num":18,"trial_length":6,"click_num":2,"RT":911.8000000007451,"action":1,"reward":-2.7},{"phase":"TASK","trial_num":18,"trial_length":6,"click_num":3,"RT":864.1999999992549,"action":1,"reward":-3.4},{"phase":"TASK","trial_num":18,"trial_length":6,"click_num":4,"RT":1056.3999999985099,"action":1,"reward":-3.1},{"phase":"TASK","trial_num":18,"trial_length":6,"click_num":5,"RT":1159.699999999255,"action":0,"reward":-2.7},{"phase":"TASK","trial_num":18,"trial_length":6,"click_num":6,"RT":1807.9000000022352,"action":0,"reward":-2.7},{"phase":"TASK","trial_num":19,"trial_length":9,"click_num":1,"RT":863.8999999985099,"action":1,"reward":-2.7},{"phase":"TASK","trial_num":19,"trial_length":9,"click_num":2,"RT":1168,"action":1,"reward":-2.5},{"phase":"TASK","trial_num":19,"trial_length":9,"click_num":3,"RT":1303.800000000745,"action":1,"reward":-2.7},{"phase":"TASK","trial_num":19,"trial_length":9,"click_num":4,"RT":1400.199999999255,"action":1,"reward":-3.1},{"phase":"TASK","trial_num":19,"trial_length":9,"click_num":5,"RT":1039.9000000022352,"action":1,"reward":-3.4},{"phase":"TASK","trial_num":19,"trial_length":9,"click_num":6,"RT":920,"action":1,"reward":-3.1},{"phase":"TASK","trial_num":19,"trial_length":9,"click_num":7,"RT":984.0999999977648,"action":1,"reward":-2.9},{"phase":"TASK","trial_num":19,"trial_length":9,"click_num":8,"RT":760.1000000014901,"action":0,"reward":-2.5},{"phase":"TASK","trial_num":19,"trial_length":9,"click_num":9,"RT":655.8999999985099,"action":0,"reward":-2.5},{"phase":"TASK","trial_num":20,"trial_length":9,"click_num":1,"RT":783.8999999985099,"action":1,"reward":-3.3},{"phase":"TASK","trial_num":20,"trial_length":9,"click_num":2,"RT":1928.300000000745,"action":1,"reward":-3.1},{"phase":"TASK","trial_num":20,"trial_length":9,"click_num":3,"RT":1055.5,"action":1,"reward":-2.6},{"phase":"TASK","trial_num":20,"trial_length":9,"click_num":4,"RT":872.0999999977648,"action":1,"reward":-2.5},{"phase":"TASK","trial_num":20,"trial_length":9,"click_num":5,"RT":1327.800000000745,"action":1,"reward":-2.3},{"phase":"TASK","trial_num":20,"trial_length":9,"click_num":6,"RT":936.1999999992549,"action":1,"reward":-2.9},{"phase":"TASK","trial_num":20,"trial_length":9,"click_num":7,"RT":1241.1000000014901,"action":1,"reward":-3.5},{"phase":"TASK","trial_num":20,"trial_length":9,"click_num":8,"RT":750.8000000007451,"action":0,"reward":-2.3},{"phase":"TASK","trial_num":20,"trial_length":9,"click_num":9,"RT":1192.0999999977648,"action":0,"reward":-2.3},{"phase":"TASK","trial_num":21,"trial_length":5,"click_num":1,"RT":807.5,"action":1,"reward":-3.5},{"phase":"TASK","trial_num":21,"trial_length":5,"click_num":2,"RT":911.9000000022352,"action":1,"reward":-3.2},{"phase":"TASK","trial_num":21,"trial_length":5,"click_num":3,"RT":1160.199999999255,"action":1,"reward":-3.9},{"phase":"TASK","trial_num":21,"trial_length":5,"click_num":4,"RT":880.0999999977648,"action":1,"reward":-3.3},{"phase":"TASK","trial_num":21,"trial_length":5,"click_num":5,"RT":1127.9000000022352,"action":0,"reward":-3.2},{"phase":"TASK","trial_num":22,"trial_length":10,"click_num":1,"RT":1935.5,"action":1,"reward":-2.5},{"phase":"TASK","trial_num":22,"trial_length":10,"click_num":2,"RT":912,"action":1,"reward":-3.7},{"phase":"TASK","trial_num":22,"trial_length":10,"click_num":3,"RT":856.0999999977648,"action":1,"reward":-2.3},{"phase":"TASK","trial_num":22,"trial_length":10,"click_num":4,"RT":936,"action":1,"reward":-3.3},{"phase":"TASK","trial_num":22,"trial_length":10,"click_num":5,"RT":791.9000000022352,"action":1,"reward":-2.5},{"phase":"TASK","trial_num":22,"trial_length":10,"click_num":6,"RT":944.0999999977648,"action":1,"reward":-2.9},{"phase":"TASK","trial_num":22,"trial_length":10,"click_num":7,"RT":903.9000000022352,"action":1,"reward":-3.4},{"phase":"TASK","trial_num":22,"trial_length":10,"click_num":8,"RT":775.8999999985099,"action":0,"reward":-2.3},{"phase":"TASK","trial_num":22,"trial_length":10,"click_num":9,"RT":600.1000000014901,"action":0,"reward":-2.3},{"phase":"TASK","trial_num":22,"trial_length":10,"click_num":10,"RT":616.0999999977648,"action":0,"reward":-2.3},{"phase":"TASK","trial_num":23,"trial_length":7,"click_num":1,"RT":1088.300000000745,"action":1,"reward":-3.1},{"phase":"TASK","trial_num":23,"trial_length":7,"click_num":2,"RT":959.3000000007451,"action":1,"reward":-3.4},{"phase":"TASK","trial_num":23,"trial_length":7,"click_num":3,"RT":840.0999999977648,"action":1,"reward":-2.6},{"phase":"TASK","trial_num":23,"trial_length":7,"click_num":4,"RT":1096,"action":1,"reward":-3.4},{"phase":"TASK","trial_num":23,"trial_length":7,"click_num":5,"RT":1080,"action":1,"reward":-3.3},{"phase":"TASK","trial_num":23,"trial_length":7,"click_num":6,"RT":848,"action":0,"reward":-2.6},{"phase":"TASK","trial_num":23,"trial_length":7,"click_num":7,"RT":655.9000000022352,"action":0,"reward":-2.6},{"phase":"TASK","trial_num":24,"trial_length":7,"click_num":1,"RT":895.6999999992549,"action":1,"reward":-2.8},{"phase":"TASK","trial_num":24,"trial_length":7,"click_num":2,"RT":1032.0999999977648,"action":1,"reward":-2.6},{"phase":"TASK","trial_num":24,"trial_length":7,"click_num":3,"RT":1152,"action":1,"reward":-3.1},{"phase":"TASK","trial_num":24,"trial_length":7,"click_num":4,"RT":1583.9000000022352,"action":1,"reward":-2},{"phase":"TASK","trial_num":24,"trial_length":7,"click_num":5,"RT":2208,"action":0,"reward":-2},{"phase":"TASK","trial_num":24,"trial_length":7,"click_num":6,"RT":648.0999999977648,"action":0,"reward":-2},{"phase":"TASK","trial_num":24,"trial_length":7,"click_num":7,"RT":663.9000000022352,"action":0,"reward":-2},{"phase":"TASK","trial_num":25,"trial_length":10,"click_num":1,"RT":855.5,"action":1,"reward":-3.1},{"phase":"TASK","trial_num":25,"trial_length":10,"click_num":2,"RT":1376.199999999255,"action":1,"reward":-2.7},{"phase":"TASK","trial_num":25,"trial_length":10,"click_num":3,"RT":712.5999999977648,"action":1,"reward":-3.3},{"phase":"TASK","trial_num":25,"trial_length":10,"click_num":4,"RT":1399.300000000745,"action":1,"reward":-3.4},{"phase":"TASK","trial_num":25,"trial_length":10,"click_num":5,"RT":680.1000000014901,"action":1,"reward":-2.3},{"phase":"TASK","trial_num":25,"trial_length":10,"click_num":6,"RT":1448.199999999255,"action":1,"reward":-3.2},{"phase":"TASK","trial_num":25,"trial_length":10,"click_num":7,"RT":1519.800000000745,"action":1,"reward":-2.5},{"phase":"TASK","trial_num":25,"trial_length":10,"click_num":8,"RT":823.6999999992549,"action":0,"reward":-2.3},{"phase":"TASK","trial_num":25,"trial_length":10,"click_num":9,"RT":648.3999999985099,"action":0,"reward":-2.3},{"phase":"TASK","trial_num":25,"trial_length":10,"click_num":10,"RT":583.6000000014901,"action":0,"reward":-2.3},{"phase":"TASK","trial_num":26,"trial_length":9,"click_num":1,"RT":775.9000000022352,"action":1,"reward":-3.3},{"phase":"TASK","trial_num":26,"trial_length":9,"click_num":2,"RT":1103.7999999970198,"action":1,"reward":-2.2},{"phase":"TASK","trial_num":26,"trial_length":9,"click_num":3,"RT":959.9000000022352,"action":1,"reward":-3.7},{"phase":"TASK","trial_num":26,"trial_length":9,"click_num":4,"RT":968.0999999977648,"action":1,"reward":-2.4},{"phase":"TASK","trial_num":26,"trial_length":9,"click_num":5,"RT":896,"action":1,"reward":-3.3},{"phase":"TASK","trial_num":26,"trial_length":9,"click_num":6,"RT":1528,"action":1,"reward":-2.8},{"phase":"TASK","trial_num":26,"trial_length":9,"click_num":7,"RT":824,"action":0,"reward":-2.2},{"phase":"TASK","trial_num":26,"trial_length":9,"click_num":8,"RT":664,"action":0,"reward":-2.2},{"phase":"TASK","trial_num":26,"trial_length":9,"click_num":9,"RT":767.8000000007451,"action":0,"reward":-2.2},{"phase":"TASK","trial_num":27,"trial_length":6,"click_num":1,"RT":1656.3999999985099,"action":1,"reward":-3},{"phase":"TASK","trial_num":27,"trial_length":6,"click_num":2,"RT":1447.5,"action":1,"reward":-2.8},{"phase":"TASK","trial_num":27,"trial_length":6,"click_num":3,"RT":751.8000000007451,"action":1,"reward":-3.4},{"phase":"TASK","trial_num":27,"trial_length":6,"click_num":4,"RT":1360.300000000745,"action":1,"reward":-2.6},{"phase":"TASK","trial_num":27,"trial_length":6,"click_num":5,"RT":1463.800000000745,"action":1,"reward":-3.7},{"phase":"TASK","trial_num":27,"trial_length":6,"click_num":6,"RT":992.0999999977648,"action":0,"reward":-2.6},{"phase":"TASK","trial_num":28,"trial_length":6,"click_num":1,"RT":1279.800000000745,"action":1,"reward":-2.7},{"phase":"TASK","trial_num":28,"trial_length":6,"click_num":2,"RT":1456.0999999977648,"action":1,"reward":-2.1},{"phase":"TASK","trial_num":28,"trial_length":6,"click_num":3,"RT":2343.900000002235,"action":1,"reward":-3},{"phase":"TASK","trial_num":28,"trial_length":6,"click_num":4,"RT":1160.0999999977648,"action":0,"reward":-2.1},{"phase":"TASK","trial_num":28,"trial_length":6,"click_num":5,"RT":584,"action":0,"reward":-2.1},{"phase":"TASK","trial_num":28,"trial_length":6,"click_num":6,"RT":632,"action":0,"reward":-2.1},{"phase":"TASK","trial_num":29,"trial_length":5,"click_num":1,"RT":655.6999999992549,"action":1,"reward":-3},{"phase":"TASK","trial_num":29,"trial_length":5,"click_num":2,"RT":976.0999999977648,"action":1,"reward":-2.7},{"phase":"TASK","trial_num":29,"trial_length":5,"click_num":3,"RT":1448,"action":1,"reward":-2.5},{"phase":"TASK","trial_num":29,"trial_length":5,"click_num":4,"RT":927.9000000022352,"action":1,"reward":-2.7},{"phase":"TASK","trial_num":29,"trial_length":5,"click_num":5,"RT":1352,"action":0,"reward":-2.5},{"phase":"TASK","trial_num":30,"trial_length":10,"click_num":1,"RT":887.6000000014901,"action":1,"reward":-3.5},{"phase":"TASK","trial_num":30,"trial_length":10,"click_num":2,"RT":1256.0999999977648,"action":1,"reward":-2.9},{"phase":"TASK","trial_num":30,"trial_length":10,"click_num":3,"RT":776,"action":1,"reward":-3.3},{"phase":"TASK","trial_num":30,"trial_length":10,"click_num":4,"RT":840,"action":1,"reward":-3.7},{"phase":"TASK","trial_num":30,"trial_length":10,"click_num":5,"RT":1512.1000000014901,"action":1,"reward":-2.8},{"phase":"TASK","trial_num":30,"trial_length":10,"click_num":6,"RT":8120.800000000745,"action":1,"reward":-2.6},{"phase":"TASK","trial_num":30,"trial_length":10,"click_num":7,"RT":1215.0999999977648,"action":1,"reward":-2.6},{"phase":"TASK","trial_num":30,"trial_length":10,"click_num":8,"RT":2511.900000002235,"action":1,"reward":-2.3},{"phase":"TASK","trial_num":30,"trial_length":10,"click_num":9,"RT":2735.89999999851,"action":0,"reward":-2.3},{"phase":"TASK","trial_num":30,"trial_length":10,"click_num":10,"RT":568.1999999992549,"action":0,"reward":-2.3},{"phase":"TASK","trial_num":31,"trial_length":10,"click_num":1,"RT":1152,"action":1,"reward":-2.8},{"phase":"TASK","trial_num":31,"trial_length":10,"click_num":2,"RT":823.8999999985099,"action":1,"reward":-3.7},{"phase":"TASK","trial_num":31,"trial_length":10,"click_num":3,"RT":679.8000000007451,"action":1,"reward":-3},{"phase":"TASK","trial_num":31,"trial_length":10,"click_num":4,"RT":744.1999999992549,"action":1,"reward":-2.9},{"phase":"TASK","trial_num":31,"trial_length":10,"click_num":5,"RT":777.1000000014901,"action":1,"reward":-3.2},{"phase":"TASK","trial_num":31,"trial_length":10,"click_num":6,"RT":902.8999999985099,"action":1,"reward":-3.1},{"phase":"TASK","trial_num":31,"trial_length":10,"click_num":7,"RT":776,"action":1,"reward":-3.1},{"phase":"TASK","trial_num":31,"trial_length":10,"click_num":8,"RT":1079.9000000022352,"action":0,"reward":-2.8},{"phase":"TASK","trial_num":31,"trial_length":10,"click_num":9,"RT":1728.0999999977648,"action":0,"reward":-2.8},{"phase":"TASK","trial_num":31,"trial_length":10,"click_num":10,"RT":655.9000000022352,"action":0,"reward":-2.8},{"phase":"TASK","trial_num":32,"trial_length":9,"click_num":1,"RT":1279.4000000022352,"action":1,"reward":-1.9},{"phase":"TASK","trial_num":32,"trial_length":9,"click_num":2,"RT":2080,"action":1,"reward":-3.9},{"phase":"TASK","trial_num":32,"trial_length":9,"click_num":3,"RT":1023.8999999985099,"action":0,"reward":-1.9},{"phase":"TASK","trial_num":32,"trial_length":9,"click_num":4,"RT":600.1000000014901,"action":0,"reward":-1.9},{"phase":"TASK","trial_num":32,"trial_length":9,"click_num":5,"RT":615.8999999985099,"action":0,"reward":-1.9},{"phase":"TASK","trial_num":32,"trial_length":9,"click_num":6,"RT":1168.199999999255,"action":0,"reward":-1.9},{"phase":"TASK","trial_num":32,"trial_length":9,"click_num":7,"RT":672,"action":0,"reward":-1.9},{"phase":"TASK","trial_num":32,"trial_length":9,"click_num":8,"RT":688.4000000022352,"action":0,"reward":-1.9},{"phase":"TASK","trial_num":32,"trial_length":9,"click_num":9,"RT":631.5999999977648,"action":0,"reward":-1.9},{"phase":"TASK","trial_num":33,"trial_length":7,"click_num":1,"RT":1127.5,"action":1,"reward":-3.1},{"phase":"TASK","trial_num":33,"trial_length":7,"click_num":2,"RT":1016.0999999977648,"action":1,"reward":-3.4},{"phase":"TASK","trial_num":33,"trial_length":7,"click_num":3,"RT":823.9000000022352,"action":1,"reward":-2.4},{"phase":"TASK","trial_num":33,"trial_length":7,"click_num":4,"RT":864.0999999977648,"action":1,"reward":-3.2},{"phase":"TASK","trial_num":33,"trial_length":7,"click_num":5,"RT":5464,"action":1,"reward":-4.1},{"phase":"TASK","trial_num":33,"trial_length":7,"click_num":6,"RT":1376,"action":0,"reward":-2.4},{"phase":"TASK","trial_num":33,"trial_length":7,"click_num":7,"RT":847.8000000007451,"action":0,"reward":-2.4},{"phase":"TASK","trial_num":34,"trial_length":6,"click_num":1,"RT":1575.699999999255,"action":1,"reward":-2.8},{"phase":"TASK","trial_num":34,"trial_length":6,"click_num":2,"RT":736,"action":1,"reward":-3.3},{"phase":"TASK","trial_num":34,"trial_length":6,"click_num":3,"RT":712.0999999977648,"action":1,"reward":-3.3},{"phase":"TASK","trial_num":34,"trial_length":6,"click_num":4,"RT":696.1000000014901,"action":1,"reward":-1.8},{"phase":"TASK","trial_num":34,"trial_length":6,"click_num":5,"RT":927.8000000007451,"action":0,"reward":-1.8},{"phase":"TASK","trial_num":34,"trial_length":6,"click_num":6,"RT":864.5,"action":0,"reward":-1.8},{"phase":"TASK","trial_num":35,"trial_length":9,"click_num":1,"RT":767.6000000014901,"action":1,"reward":-2.4},{"phase":"TASK","trial_num":35,"trial_length":9,"click_num":2,"RT":784.6999999992549,"action":1,"reward":-2.7},{"phase":"TASK","trial_num":35,"trial_length":9,"click_num":3,"RT":703.1999999992549,"action":1,"reward":-2.4},{"phase":"TASK","trial_num":35,"trial_length":9,"click_num":4,"RT":712.1999999992549,"action":1,"reward":-3},{"phase":"TASK","trial_num":35,"trial_length":9,"click_num":5,"RT":1520,"action":1,"reward":-2.3},{"phase":"TASK","trial_num":35,"trial_length":9,"click_num":6,"RT":839.9000000022352,"action":1,"reward":-2.7},{"phase":"TASK","trial_num":35,"trial_length":9,"click_num":7,"RT":1056,"action":1,"reward":-3.5},{"phase":"TASK","trial_num":35,"trial_length":9,"click_num":8,"RT":1032,"action":0,"reward":-2.3},{"phase":"TASK","trial_num":35,"trial_length":9,"click_num":9,"RT":544.0999999977648,"action":0,"reward":-2.3},{"phase":"TASK","trial_num":36,"trial_length":9,"click_num":1,"RT":1559.7999999970198,"action":1,"reward":-2.8},{"phase":"TASK","trial_num":36,"trial_length":9,"click_num":2,"RT":1344,"action":1,"reward":-2.8},{"phase":"TASK","trial_num":36,"trial_length":9,"click_num":3,"RT":879.9000000022352,"action":1,"reward":-3.9},{"phase":"TASK","trial_num":36,"trial_length":9,"click_num":4,"RT":840,"action":1,"reward":-3.8},{"phase":"TASK","trial_num":36,"trial_length":9,"click_num":5,"RT":2112,"action":1,"reward":-2.5},{"phase":"TASK","trial_num":36,"trial_length":9,"click_num":6,"RT":752.0999999977648,"action":1,"reward":-3.1},{"phase":"TASK","trial_num":36,"trial_length":9,"click_num":7,"RT":1056,"action":1,"reward":-3},{"phase":"TASK","trial_num":36,"trial_length":9,"click_num":8,"RT":1336,"action":0,"reward":-2.5},{"phase":"TASK","trial_num":36,"trial_length":9,"click_num":9,"RT":575.9000000022352,"action":0,"reward":-2.5},{"phase":"TASK","trial_num":37,"trial_length":7,"click_num":1,"RT":984.5,"action":1,"reward":-3.3},{"phase":"TASK","trial_num":37,"trial_length":7,"click_num":2,"RT":719.5,"action":1,"reward":-3.2},{"phase":"TASK","trial_num":37,"trial_length":7,"click_num":3,"RT":751.6999999992549,"action":1,"reward":-2.9},{"phase":"TASK","trial_num":37,"trial_length":7,"click_num":4,"RT":1672.4000000022352,"action":1,"reward":-2.4},{"phase":"TASK","trial_num":37,"trial_length":7,"click_num":5,"RT":1319.5999999977648,"action":1,"reward":-1.2},{"phase":"TASK","trial_num":37,"trial_length":7,"click_num":6,"RT":1911.9000000022352,"action":0,"reward":-1.2},{"phase":"TASK","trial_num":37,"trial_length":7,"click_num":7,"RT":607.8999999985099,"action":0,"reward":-1.2},{"phase":"TASK","trial_num":38,"trial_length":5,"click_num":1,"RT":743.3999999985099,"action":1,"reward":-4.1},{"phase":"TASK","trial_num":38,"trial_length":5,"click_num":2,"RT":872.1999999992549,"action":1,"reward":-3.3},{"phase":"TASK","trial_num":38,"trial_length":5,"click_num":3,"RT":960.1000000014901,"action":1,"reward":-2.7},{"phase":"TASK","trial_num":38,"trial_length":5,"click_num":4,"RT":775.8000000007451,"action":1,"reward":-3},{"phase":"TASK","trial_num":38,"trial_length":5,"click_num":5,"RT":720.0999999977648,"action":1,"reward":-3.2},{"phase":"TASK","trial_num":39,"trial_length":10,"click_num":1,"RT":783.6999999992549,"action":1,"reward":-2.2},{"phase":"TASK","trial_num":39,"trial_length":10,"click_num":2,"RT":952.6999999992549,"action":1,"reward":-2.8},{"phase":"TASK","trial_num":39,"trial_length":10,"click_num":3,"RT":1007.3999999985099,"action":1,"reward":-2.7},{"phase":"TASK","trial_num":39,"trial_length":10,"click_num":4,"RT":1544.4000000022352,"action":1,"reward":-3.1},{"phase":"TASK","trial_num":39,"trial_length":10,"click_num":5,"RT":791.5,"action":1,"reward":-3.3},{"phase":"TASK","trial_num":39,"trial_length":10,"click_num":6,"RT":928.3000000007451,"action":1,"reward":-2.9},{"phase":"TASK","trial_num":39,"trial_length":10,"click_num":7,"RT":623.6999999992549,"action":0,"reward":-2.2},{"phase":"TASK","trial_num":39,"trial_length":10,"click_num":8,"RT":576.0999999977648,"action":0,"reward":-2.2},{"phase":"TASK","trial_num":39,"trial_length":10,"click_num":9,"RT":671.9000000022352,"action":0,"reward":-2.2},{"phase":"TASK","trial_num":39,"trial_length":10,"click_num":10,"RT":576.0999999977648,"action":0,"reward":-2.2},{"phase":"TASK","trial_num":40,"trial_length":9,"click_num":1,"RT":672,"action":1,"reward":-3.7},{"phase":"TASK","trial_num":40,"trial_length":9,"click_num":2,"RT":1007.5999999977648,"action":1,"reward":-3.2},{"phase":"TASK","trial_num":40,"trial_length":9,"click_num":3,"RT":1040,"action":1,"reward":-3.4},{"phase":"TASK","trial_num":40,"trial_length":9,"click_num":4,"RT":767.9000000022352,"action":1,"reward":-2.4},{"phase":"TASK","trial_num":40,"trial_length":9,"click_num":5,"RT":880.0999999977648,"action":1,"reward":-2.5},{"phase":"TASK","trial_num":40,"trial_length":9,"click_num":6,"RT":719.8000000007451,"action":1,"reward":-3.3},{"phase":"TASK","trial_num":40,"trial_length":9,"click_num":7,"RT":1024.199999999255,"action":1,"reward":-3.5},{"phase":"TASK","trial_num":40,"trial_length":9,"click_num":8,"RT":943.9000000022352,"action":0,"reward":-2.4},{"phase":"TASK","trial_num":40,"trial_length":9,"click_num":9,"RT":568,"action":0,"reward":-2.4},{"phase":"TASK","trial_num":41,"trial_length":7,"click_num":1,"RT":688.3000000007451,"action":1,"reward":-2.7},{"phase":"TASK","trial_num":41,"trial_length":7,"click_num":2,"RT":687.5999999977648,"action":1,"reward":-3.1},{"phase":"TASK","trial_num":41,"trial_length":7,"click_num":3,"RT":672,"action":1,"reward":-3.7},{"phase":"TASK","trial_num":41,"trial_length":7,"click_num":4,"RT":656.1000000014901,"action":1,"reward":-2.9},{"phase":"TASK","trial_num":41,"trial_length":7,"click_num":5,"RT":2600.39999999851,"action":1,"reward":-3.5},{"phase":"TASK","trial_num":41,"trial_length":7,"click_num":6,"RT":687.5,"action":1,"reward":-3.3},{"phase":"TASK","trial_num":41,"trial_length":7,"click_num":7,"RT":648,"action":0,"reward":-2.7},{"phase":"TASK","trial_num":42,"trial_length":5,"click_num":1,"RT":679.9000000022352,"action":1,"reward":-2.4},{"phase":"TASK","trial_num":42,"trial_length":5,"click_num":2,"RT":1167.5999999977648,"action":1,"reward":-2.3},{"phase":"TASK","trial_num":42,"trial_length":5,"click_num":3,"RT":728.6999999992549,"action":1,"reward":-3},{"phase":"TASK","trial_num":42,"trial_length":5,"click_num":4,"RT":759.5,"action":1,"reward":-3.6},{"phase":"TASK","trial_num":42,"trial_length":5,"click_num":5,"RT":680.6000000014901,"action":0,"reward":-2.3},{"phase":"TASK","trial_num":43,"trial_length":7,"click_num":1,"RT":704,"action":1,"reward":-2.7},{"phase":"TASK","trial_num":43,"trial_length":7,"click_num":2,"RT":711.8000000007451,"action":1,"reward":-3.1},{"phase":"TASK","trial_num":43,"trial_length":7,"click_num":3,"RT":752,"action":1,"reward":-2.4},{"phase":"TASK","trial_num":43,"trial_length":7,"click_num":4,"RT":688.5,"action":1,"reward":-3.5},{"phase":"TASK","trial_num":43,"trial_length":7,"click_num":5,"RT":808,"action":1,"reward":-3.5},{"phase":"TASK","trial_num":43,"trial_length":7,"click_num":6,"RT":663.5999999977648,"action":0,"reward":-2.4},{"phase":"TASK","trial_num":43,"trial_length":7,"click_num":7,"RT":631.9000000022352,"action":0,"reward":-2.4},{"phase":"TASK","trial_num":44,"trial_length":8,"click_num":1,"RT":719.6999999992549,"action":1,"reward":-3.2},{"phase":"TASK","trial_num":44,"trial_length":8,"click_num":2,"RT":968.7000000029802,"action":1,"reward":-3.3},{"phase":"TASK","trial_num":44,"trial_length":8,"click_num":3,"RT":663.6999999992549,"action":1,"reward":-2.7},{"phase":"TASK","trial_num":44,"trial_length":8,"click_num":4,"RT":688.0999999977648,"action":1,"reward":-2.8},{"phase":"TASK","trial_num":44,"trial_length":8,"click_num":5,"RT":1208,"action":1,"reward":-3.2},{"phase":"TASK","trial_num":44,"trial_length":8,"click_num":6,"RT":704.1000000014901,"action":1,"reward":-2.1},{"phase":"TASK","trial_num":44,"trial_length":8,"click_num":7,"RT":1383.3999999985099,"action":0,"reward":-2.1},{"phase":"TASK","trial_num":44,"trial_length":8,"click_num":8,"RT":592,"action":0,"reward":-2.1},{"phase":"TASK","trial_num":45,"trial_length":5,"click_num":1,"RT":664.3999999985099,"action":1,"reward":-3.5},{"phase":"TASK","trial_num":45,"trial_length":5,"click_num":2,"RT":695.4000000022352,"action":1,"reward":-2},{"phase":"TASK","trial_num":45,"trial_length":5,"click_num":3,"RT":904,"action":0,"reward":-2},{"phase":"TASK","trial_num":45,"trial_length":5,"click_num":4,"RT":616.0999999977648,"action":0,"reward":-2},{"phase":"TASK","trial_num":45,"trial_length":5,"click_num":5,"RT":960,"action":0,"reward":-2},{"phase":"TASK","trial_num":46,"trial_length":8,"click_num":1,"RT":679.6999999992549,"action":1,"reward":-3.8},{"phase":"TASK","trial_num":46,"trial_length":8,"click_num":2,"RT":759.8999999985099,"action":1,"reward":-3.3},{"phase":"TASK","trial_num":46,"trial_length":8,"click_num":3,"RT":785.1999999992549,"action":1,"reward":-2.4},{"phase":"TASK","trial_num":46,"trial_length":8,"click_num":4,"RT":639.5,"action":1,"reward":-3.1},{"phase":"TASK","trial_num":46,"trial_length":8,"click_num":5,"RT":655.3000000007451,"action":1,"reward":-2.7},{"phase":"TASK","trial_num":46,"trial_length":8,"click_num":6,"RT":2064.300000000745,"action":1,"reward":-3.7},{"phase":"TASK","trial_num":46,"trial_length":8,"click_num":7,"RT":615.8000000007451,"action":0,"reward":-2.4},{"phase":"TASK","trial_num":46,"trial_length":8,"click_num":8,"RT":544.0999999977648,"action":0,"reward":-2.4},{"phase":"TASK","trial_num":47,"trial_length":5,"click_num":1,"RT":608.2999999970198,"action":1,"reward":-2.3},{"phase":"TASK","trial_num":47,"trial_length":5,"click_num":2,"RT":615.6000000014901,"action":1,"reward":-3},{"phase":"TASK","trial_num":47,"trial_length":5,"click_num":3,"RT":728,"action":1,"reward":-3.7},{"phase":"TASK","trial_num":47,"trial_length":5,"click_num":4,"RT":736.3999999985099,"action":1,"reward":-2.3},{"phase":"TASK","trial_num":47,"trial_length":5,"click_num":5,"RT":639.5,"action":0,"reward":-2.3},{"phase":"TASK","trial_num":48,"trial_length":10,"click_num":1,"RT":992,"action":1,"reward":-2.7},{"phase":"TASK","trial_num":48,"trial_length":10,"click_num":2,"RT":760.4000000022352,"action":1,"reward":-2.9},{"phase":"TASK","trial_num":48,"trial_length":10,"click_num":3,"RT":727.5,"action":1,"reward":-2.7},{"phase":"TASK","trial_num":48,"trial_length":10,"click_num":4,"RT":952.0999999977648,"action":1,"reward":-4.7},{"phase":"TASK","trial_num":48,"trial_length":10,"click_num":5,"RT":1559.800000000745,"action":1,"reward":-3},{"phase":"TASK","trial_num":48,"trial_length":10,"click_num":6,"RT":768.1000000014901,"action":1,"reward":-3},{"phase":"TASK","trial_num":48,"trial_length":10,"click_num":7,"RT":824.0999999977648,"action":1,"reward":-3.2},{"phase":"TASK","trial_num":48,"trial_length":10,"click_num":8,"RT":647.9000000022352,"action":0,"reward":-2.7},{"phase":"TASK","trial_num":48,"trial_length":10,"click_num":9,"RT":784.0999999977648,"action":0,"reward":-2.7},{"phase":"TASK","trial_num":48,"trial_length":10,"click_num":10,"RT":768,"action":0,"reward":-2.7},{"phase":"TASK","trial_num":49,"trial_length":5,"click_num":1,"RT":1023.6000000014901,"action":1,"reward":-2.5},{"phase":"TASK","trial_num":49,"trial_length":5,"click_num":2,"RT":1072.0999999977648,"action":1,"reward":-3.1},{"phase":"TASK","trial_num":49,"trial_length":5,"click_num":3,"RT":728.1000000014901,"action":1,"reward":-3.1},{"phase":"TASK","trial_num":49,"trial_length":5,"click_num":4,"RT":703.8000000007451,"action":1,"reward":-2.9},{"phase":"TASK","trial_num":49,"trial_length":5,"click_num":5,"RT":696,"action":0,"reward":-2.5},{"phase":"TASK","trial_num":50,"trial_length":7,"click_num":1,"RT":2231.400000002235,"action":1,"reward":-3.3},{"phase":"TASK","trial_num":50,"trial_length":7,"click_num":2,"RT":2168.199999999255,"action":1,"reward":-2.3},{"phase":"TASK","trial_num":50,"trial_length":7,"click_num":3,"RT":984.0999999977648,"action":1,"reward":-2.5},{"phase":"TASK","trial_num":50,"trial_length":7,"click_num":4,"RT":839.9000000022352,"action":1,"reward":-2.2},{"phase":"TASK","trial_num":50,"trial_length":7,"click_num":5,"RT":728.5999999977648,"action":1,"reward":-3.1},{"phase":"TASK","trial_num":50,"trial_length":7,"click_num":6,"RT":919.2000000029802,"action":0,"reward":-2.2},{"phase":"TASK","trial_num":50,"trial_length":7,"click_num":7,"RT":1120.2999999970198,"action":0,"reward":-2.2},{"phase":"TASK","trial_num":51,"trial_length":6,"click_num":1,"RT":767.8999999985099,"action":1,"reward":-2.9},{"phase":"TASK","trial_num":51,"trial_length":6,"click_num":2,"RT":752,"action":1,"reward":-3.6},{"phase":"TASK","trial_num":51,"trial_length":6,"click_num":3,"RT":1007.9000000022352,"action":1,"reward":-2.1},{"phase":"TASK","trial_num":51,"trial_length":6,"click_num":4,"RT":895.8999999985099,"action":1,"reward":-3.7},{"phase":"TASK","trial_num":51,"trial_length":6,"click_num":5,"RT":1040,"action":0,"reward":-2.1},{"phase":"TASK","trial_num":51,"trial_length":6,"click_num":6,"RT":864.1000000014901,"action":0,"reward":-2.1},{"phase":"TASK","trial_num":52,"trial_length":6,"click_num":1,"RT":871,"action":1,"reward":-3.5},{"phase":"TASK","trial_num":52,"trial_length":6,"click_num":2,"RT":776,"action":1,"reward":-2.5},{"phase":"TASK","trial_num":52,"trial_length":6,"click_num":3,"RT":783.8999999985099,"action":1,"reward":-3.6},{"phase":"TASK","trial_num":52,"trial_length":6,"click_num":4,"RT":776.1000000014901,"action":1,"reward":-3},{"phase":"TASK","trial_num":52,"trial_length":6,"click_num":5,"RT":1080,"action":0,"reward":-2.5},{"phase":"TASK","trial_num":52,"trial_length":6,"click_num":6,"RT":696,"action":0,"reward":-2.5},{"phase":"TASK","trial_num":53,"trial_length":9,"click_num":1,"RT":791.9000000022352,"action":1,"reward":-2.3},{"phase":"TASK","trial_num":53,"trial_length":9,"click_num":2,"RT":13304.099999997765,"action":1,"reward":-2.9},{"phase":"TASK","trial_num":53,"trial_length":9,"click_num":3,"RT":1119.9000000022352,"action":1,"reward":-3.2},{"phase":"TASK","trial_num":53,"trial_length":9,"click_num":4,"RT":1984.0999999977648,"action":1,"reward":-3.2},{"phase":"TASK","trial_num":53,"trial_length":9,"click_num":5,"RT":1239.9000000022352,"action":1,"reward":-3.8},{"phase":"TASK","trial_num":53,"trial_length":9,"click_num":6,"RT":672.0999999977648,"action":0,"reward":-2.3},{"phase":"TASK","trial_num":53,"trial_length":9,"click_num":7,"RT":559.9000000022352,"action":0,"reward":-2.3},{"phase":"TASK","trial_num":53,"trial_length":9,"click_num":8,"RT":544,"action":0,"reward":-2.3},{"phase":"TASK","trial_num":53,"trial_length":9,"click_num":9,"RT":496,"action":0,"reward":-2.3},{"phase":"TASK","trial_num":54,"trial_length":8,"click_num":1,"RT":983.9000000022352,"action":1,"reward":-3.7},{"phase":"TASK","trial_num":54,"trial_length":8,"click_num":2,"RT":728,"action":1,"reward":-3},{"phase":"TASK","trial_num":54,"trial_length":8,"click_num":3,"RT":808,"action":1,"reward":-3.3},{"phase":"TASK","trial_num":54,"trial_length":8,"click_num":4,"RT":760,"action":1,"reward":-2.3},{"phase":"TASK","trial_num":54,"trial_length":8,"click_num":5,"RT":1016,"action":1,"reward":-2.4},{"phase":"TASK","trial_num":54,"trial_length":8,"click_num":6,"RT":871.8999999985099,"action":1,"reward":-4},{"phase":"TASK","trial_num":54,"trial_length":8,"click_num":7,"RT":880,"action":0,"reward":-2.3},{"phase":"TASK","trial_num":54,"trial_length":8,"click_num":8,"RT":536,"action":0,"reward":-2.3},{"phase":"TASK","trial_num":55,"trial_length":7,"click_num":1,"RT":712,"action":1,"reward":-3.3},{"phase":"TASK","trial_num":55,"trial_length":7,"click_num":2,"RT":768.8999999985099,"action":1,"reward":-3.1},{"phase":"TASK","trial_num":55,"trial_length":7,"click_num":3,"RT":695.1000000014901,"action":1,"reward":-2.9},{"phase":"TASK","trial_num":55,"trial_length":7,"click_num":4,"RT":728,"action":1,"reward":-3.2},{"phase":"TASK","trial_num":55,"trial_length":7,"click_num":5,"RT":744.6999999992549,"action":1,"reward":-3.3},{"phase":"TASK","trial_num":55,"trial_length":7,"click_num":6,"RT":1487.3999999985099,"action":0,"reward":-2.9},{"phase":"TASK","trial_num":55,"trial_length":7,"click_num":7,"RT":999.9000000022352,"action":1,"reward":-2.9},{"phase":"TASK","trial_num":56,"trial_length":9,"click_num":1,"RT":1159.6000000014901,"action":1,"reward":-3},{"phase":"TASK","trial_num":56,"trial_length":9,"click_num":2,"RT":920,"action":1,"reward":-2.1},{"phase":"TASK","trial_num":56,"trial_length":9,"click_num":3,"RT":1943.8999999985099,"action":1,"reward":-3.2},{"phase":"TASK","trial_num":56,"trial_length":9,"click_num":4,"RT":1072.1000000014901,"action":0,"reward":-2.1},{"phase":"TASK","trial_num":56,"trial_length":9,"click_num":5,"RT":952,"action":0,"reward":-2.1},{"phase":"TASK","trial_num":56,"trial_length":9,"click_num":6,"RT":616,"action":0,"reward":-2.1},{"phase":"TASK","trial_num":56,"trial_length":9,"click_num":7,"RT":848,"action":0,"reward":-2.1},{"phase":"TASK","trial_num":56,"trial_length":9,"click_num":8,"RT":640,"action":0,"reward":-2.1},{"phase":"TASK","trial_num":56,"trial_length":9,"click_num":9,"RT":656.0999999977648,"action":0,"reward":-2.1},{"phase":"TASK","trial_num":57,"trial_length":7,"click_num":1,"RT":751.6999999992549,"action":1,"reward":-2.2},{"phase":"TASK","trial_num":57,"trial_length":7,"click_num":2,"RT":1080.199999999255,"action":1,"reward":-2.5},{"phase":"TASK","trial_num":57,"trial_length":7,"click_num":3,"RT":831.9000000022352,"action":1,"reward":-2.6},{"phase":"TASK","trial_num":57,"trial_length":7,"click_num":4,"RT":800,"action":1,"reward":-3.6},{"phase":"TASK","trial_num":57,"trial_length":7,"click_num":5,"RT":695.8999999985099,"action":0,"reward":-2.2},{"phase":"TASK","trial_num":57,"trial_length":7,"click_num":6,"RT":576,"action":0,"reward":-2.2},{"phase":"TASK","trial_num":57,"trial_length":7,"click_num":7,"RT":544.1000000014901,"action":0,"reward":-2.2},{"phase":"TASK","trial_num":58,"trial_length":8,"click_num":1,"RT":696,"action":1,"reward":-2.5},{"phase":"TASK","trial_num":58,"trial_length":8,"click_num":2,"RT":679.9000000022352,"action":1,"reward":-3.2},{"phase":"TASK","trial_num":58,"trial_length":8,"click_num":3,"RT":792,"action":1,"reward":-2.5},{"phase":"TASK","trial_num":58,"trial_length":8,"click_num":4,"RT":1304.0999999977648,"action":1,"reward":-3.3},{"phase":"TASK","trial_num":58,"trial_length":8,"click_num":5,"RT":759.9000000022352,"action":1,"reward":-2.9},{"phase":"TASK","trial_num":58,"trial_length":8,"click_num":6,"RT":928.6999999992549,"action":1,"reward":-2.2},{"phase":"TASK","trial_num":58,"trial_length":8,"click_num":7,"RT":679.3999999985099,"action":0,"reward":-2.2},{"phase":"TASK","trial_num":58,"trial_length":8,"click_num":8,"RT":567.9000000022352,"action":0,"reward":-2.2},{"phase":"TASK","trial_num":59,"trial_length":10,"click_num":1,"RT":623.6999999992549,"action":1,"reward":-2.8},{"phase":"TASK","trial_num":59,"trial_length":10,"click_num":2,"RT":952.0999999977648,"action":1,"reward":-3.4},{"phase":"TASK","trial_num":59,"trial_length":10,"click_num":3,"RT":712,"action":1,"reward":-2.4},{"phase":"TASK","trial_num":59,"trial_length":10,"click_num":4,"RT":695.9000000022352,"action":1,"reward":-2.3},{"phase":"TASK","trial_num":59,"trial_length":10,"click_num":5,"RT":1088,"action":1,"reward":-3.1},{"phase":"TASK","trial_num":59,"trial_length":10,"click_num":6,"RT":671.8000000007451,"action":1,"reward":-3.3},{"phase":"TASK","trial_num":59,"trial_length":10,"click_num":7,"RT":720.7999999970198,"action":1,"reward":-3.8},{"phase":"TASK","trial_num":59,"trial_length":10,"click_num":8,"RT":703.5,"action":1,"reward":-2.8},{"phase":"TASK","trial_num":59,"trial_length":10,"click_num":9,"RT":992.3000000007451,"action":0,"reward":-2.3},{"phase":"TASK","trial_num":59,"trial_length":10,"click_num":10,"RT":1071.699999999255,"action":0,"reward":-2.3},{"phase":"TASK","trial_num":60,"trial_length":7,"click_num":1,"RT":824.3999999985099,"action":1,"reward":-3.1},{"phase":"TASK","trial_num":60,"trial_length":7,"click_num":2,"RT":727.8999999985099,"action":1,"reward":-2.4},{"phase":"TASK","trial_num":60,"trial_length":7,"click_num":3,"RT":703.5,"action":1,"reward":-3.7},{"phase":"TASK","trial_num":60,"trial_length":7,"click_num":4,"RT":696.5,"action":1,"reward":-3.5},{"phase":"TASK","trial_num":60,"trial_length":7,"click_num":5,"RT":696.2000000029802,"action":1,"reward":-2.5},{"phase":"TASK","trial_num":60,"trial_length":7,"click_num":6,"RT":687.3999999985099,"action":1,"reward":-2.9},{"phase":"TASK","trial_num":60,"trial_length":7,"click_num":7,"RT":768.3000000007451,"action":0,"reward":-2.4},{"phase":"TASK","trial_num":61,"trial_length":5,"click_num":1,"RT":759.6999999992549,"action":1,"reward":-3.1},{"phase":"TASK","trial_num":61,"trial_length":5,"click_num":2,"RT":936.6999999992549,"action":1,"reward":-3.3},{"phase":"TASK","trial_num":61,"trial_length":5,"click_num":3,"RT":736.2000000029802,"action":1,"reward":-2.4},{"phase":"TASK","trial_num":61,"trial_length":5,"click_num":4,"RT":975.8999999985099,"action":1,"reward":-2.8},{"phase":"TASK","trial_num":61,"trial_length":5,"click_num":5,"RT":1479.8999999985099,"action":1,"reward":-3.9},{"phase":"TASK","trial_num":62,"trial_length":7,"click_num":1,"RT":1135.7999999970198,"action":1,"reward":-3.4},{"phase":"TASK","trial_num":62,"trial_length":7,"click_num":2,"RT":672.1000000014901,"action":1,"reward":-1.8},{"phase":"TASK","trial_num":62,"trial_length":7,"click_num":3,"RT":743.8000000007451,"action":1,"reward":-3.8},{"phase":"TASK","trial_num":62,"trial_length":7,"click_num":4,"RT":656,"action":0,"reward":-1.8},{"phase":"TASK","trial_num":62,"trial_length":7,"click_num":5,"RT":568.0999999977648,"action":0,"reward":-1.8},{"phase":"TASK","trial_num":62,"trial_length":7,"click_num":6,"RT":503.9000000022352,"action":0,"reward":-1.8},{"phase":"TASK","trial_num":62,"trial_length":7,"click_num":7,"RT":544.0999999977648,"action":0,"reward":-1.8},{"phase":"TASK","trial_num":63,"trial_length":8,"click_num":1,"RT":871.7999999970198,"action":1,"reward":-3.5},{"phase":"TASK","trial_num":63,"trial_length":8,"click_num":2,"RT":823.9000000022352,"action":1,"reward":-1.7},{"phase":"TASK","trial_num":63,"trial_length":8,"click_num":3,"RT":1825,"action":0,"reward":-1.7},{"phase":"TASK","trial_num":63,"trial_length":8,"click_num":4,"RT":951.0999999977648,"action":0,"reward":-1.7},{"phase":"TASK","trial_num":63,"trial_length":8,"click_num":5,"RT":559.9000000022352,"action":0,"reward":-1.7},{"phase":"TASK","trial_num":63,"trial_length":8,"click_num":6,"RT":616,"action":0,"reward":-1.7},{"phase":"TASK","trial_num":63,"trial_length":8,"click_num":7,"RT":592,"action":0,"reward":-1.7},{"phase":"TASK","trial_num":63,"trial_length":8,"click_num":8,"RT":656.6999999992549,"action":0,"reward":-1.7},{"phase":"TASK","trial_num":64,"trial_length":9,"click_num":1,"RT":1159.800000000745,"action":1,"reward":-3.5},{"phase":"TASK","trial_num":64,"trial_length":9,"click_num":2,"RT":1352,"action":1,"reward":-2.9},{"phase":"TASK","trial_num":64,"trial_length":9,"click_num":3,"RT":688,"action":1,"reward":-2.6},{"phase":"TASK","trial_num":64,"trial_length":9,"click_num":4,"RT":800.6999999992549,"action":1,"reward":-2.7},{"phase":"TASK","trial_num":64,"trial_length":9,"click_num":5,"RT":751.3000000007451,"action":1,"reward":-3.2},{"phase":"TASK","trial_num":64,"trial_length":9,"click_num":6,"RT":704,"action":1,"reward":-2.3},{"phase":"TASK","trial_num":64,"trial_length":9,"click_num":7,"RT":672.0999999977648,"action":0,"reward":-2.3},{"phase":"TASK","trial_num":64,"trial_length":9,"click_num":8,"RT":608,"action":0,"reward":-2.3},{"phase":"TASK","trial_num":64,"trial_length":9,"click_num":9,"RT":640.5,"action":0,"reward":-2.3},{"phase":"TASK","trial_num":65,"trial_length":6,"click_num":1,"RT":671.7999999970198,"action":1,"reward":-2.5},{"phase":"TASK","trial_num":65,"trial_length":6,"click_num":2,"RT":727.9000000022352,"action":1,"reward":-3.1},{"phase":"TASK","trial_num":65,"trial_length":6,"click_num":3,"RT":664.0999999977648,"action":1,"reward":-2.5},{"phase":"TASK","trial_num":65,"trial_length":6,"click_num":4,"RT":648.1000000014901,"action":1,"reward":-3.1},{"phase":"TASK","trial_num":65,"trial_length":6,"click_num":5,"RT":799.8999999985099,"action":1,"reward":-3.3},{"phase":"TASK","trial_num":65,"trial_length":6,"click_num":6,"RT":648,"action":0,"reward":-2.5},{"phase":"TASK","trial_num":66,"trial_length":6,"click_num":1,"RT":735.7999999970198,"action":1,"reward":-2.6},{"phase":"TASK","trial_num":66,"trial_length":6,"click_num":2,"RT":759.9000000022352,"action":1,"reward":-2.9},{"phase":"TASK","trial_num":66,"trial_length":6,"click_num":3,"RT":760,"action":1,"reward":-1.9},{"phase":"TASK","trial_num":66,"trial_length":6,"click_num":4,"RT":1104,"action":1,"reward":-2.7},{"phase":"TASK","trial_num":66,"trial_length":6,"click_num":5,"RT":584,"action":0,"reward":-1.9},{"phase":"TASK","trial_num":66,"trial_length":6,"click_num":6,"RT":552,"action":0,"reward":-1.9},{"phase":"TASK","trial_num":67,"trial_length":9,"click_num":1,"RT":719.0999999977648,"action":1,"reward":-2.6},{"phase":"TASK","trial_num":67,"trial_length":9,"click_num":2,"RT":1312,"action":1,"reward":-3.5},{"phase":"TASK","trial_num":67,"trial_length":9,"click_num":3,"RT":696,"action":1,"reward":-3.1},{"phase":"TASK","trial_num":67,"trial_length":9,"click_num":4,"RT":1080.1000000014901,"action":1,"reward":-3},{"phase":"TASK","trial_num":67,"trial_length":9,"click_num":5,"RT":767.8999999985099,"action":1,"reward":-3.7},{"phase":"TASK","trial_num":67,"trial_length":9,"click_num":6,"RT":752.2000000029802,"action":1,"reward":-4.4},{"phase":"TASK","trial_num":67,"trial_length":9,"click_num":7,"RT":1207.7999999970198,"action":0,"reward":-2.6},{"phase":"TASK","trial_num":67,"trial_length":9,"click_num":8,"RT":1128,"action":0,"reward":-2.6},{"phase":"TASK","trial_num":67,"trial_length":9,"click_num":9,"RT":609,"action":0,"reward":-2.6},{"phase":"TASK","trial_num":68,"trial_length":5,"click_num":1,"RT":991.3999999985099,"action":1,"reward":-2.7},{"phase":"TASK","trial_num":68,"trial_length":5,"click_num":2,"RT":991.8999999985099,"action":1,"reward":-3.2},{"phase":"TASK","trial_num":68,"trial_length":5,"click_num":3,"RT":673.6000000014901,"action":1,"reward":-3.8},{"phase":"TASK","trial_num":68,"trial_length":5,"click_num":4,"RT":686.3999999985099,"action":1,"reward":-2.5},{"phase":"TASK","trial_num":68,"trial_length":5,"click_num":5,"RT":608,"action":0,"reward":-2.5},{"phase":"TASK","trial_num":69,"trial_length":8,"click_num":1,"RT":1015.8000000007451,"action":1,"reward":-3},{"phase":"TASK","trial_num":69,"trial_length":8,"click_num":2,"RT":960.0999999977648,"action":1,"reward":-2.8},{"phase":"TASK","trial_num":69,"trial_length":8,"click_num":3,"RT":688,"action":1,"reward":-3},{"phase":"TASK","trial_num":69,"trial_length":8,"click_num":4,"RT":696.1000000014901,"action":1,"reward":-1.7},{"phase":"TASK","trial_num":69,"trial_length":8,"click_num":5,"RT":2288.5,"action":0,"reward":-1.7},{"phase":"TASK","trial_num":69,"trial_length":8,"click_num":6,"RT":567.3000000007451,"action":0,"reward":-1.7},{"phase":"TASK","trial_num":69,"trial_length":8,"click_num":7,"RT":551.8999999985099,"action":0,"reward":-1.7},{"phase":"TASK","trial_num":69,"trial_length":8,"click_num":8,"RT":1000,"action":0,"reward":-1.7},{"phase":"TASK","trial_num":70,"trial_length":8,"click_num":1,"RT":639.8999999985099,"action":1,"reward":-2.8},{"phase":"TASK","trial_num":70,"trial_length":8,"click_num":2,"RT":759.9000000022352,"action":1,"reward":-2},{"phase":"TASK","trial_num":70,"trial_length":8,"click_num":3,"RT":1088,"action":1,"reward":-3.2},{"phase":"TASK","trial_num":70,"trial_length":8,"click_num":4,"RT":856,"action":1,"reward":-3.3},{"phase":"TASK","trial_num":70,"trial_length":8,"click_num":5,"RT":576,"action":0,"reward":-2},{"phase":"TASK","trial_num":70,"trial_length":8,"click_num":6,"RT":504.0999999977648,"action":0,"reward":-2},{"phase":"TASK","trial_num":70,"trial_length":8,"click_num":7,"RT":511.9000000022352,"action":0,"reward":-2},{"phase":"TASK","trial_num":70,"trial_length":8,"click_num":8,"RT":1071.8999999985099,"action":0,"reward":-2},{"phase":"TASK","trial_num":71,"trial_length":10,"click_num":1,"RT":1111.800000000745,"action":1,"reward":-3.1},{"phase":"TASK","trial_num":71,"trial_length":10,"click_num":2,"RT":712.0999999977648,"action":1,"reward":-3.8},{"phase":"TASK","trial_num":71,"trial_length":10,"click_num":3,"RT":680,"action":1,"reward":-2.3},{"phase":"TASK","trial_num":71,"trial_length":10,"click_num":4,"RT":1183.800000000745,"action":1,"reward":-3.3},{"phase":"TASK","trial_num":71,"trial_length":10,"click_num":5,"RT":984.1999999992549,"action":1,"reward":-3.1},{"phase":"TASK","trial_num":71,"trial_length":10,"click_num":6,"RT":703.9000000022352,"action":1,"reward":-2.9},{"phase":"TASK","trial_num":71,"trial_length":10,"click_num":7,"RT":584,"action":0,"reward":-2.3},{"phase":"TASK","trial_num":71,"trial_length":10,"click_num":8,"RT":552.0999999977648,"action":0,"reward":-2.3},{"phase":"TASK","trial_num":71,"trial_length":10,"click_num":9,"RT":575.9000000022352,"action":0,"reward":-2.3},{"phase":"TASK","trial_num":71,"trial_length":10,"click_num":10,"RT":1448.0999999977648,"action":0,"reward":-2.3},{"phase":"TASK","trial_num":72,"trial_length":7,"click_num":1,"RT":655.6999999992549,"action":1,"reward":-2.5},{"phase":"TASK","trial_num":72,"trial_length":7,"click_num":2,"RT":648.1999999992549,"action":1,"reward":-2.8},{"phase":"TASK","trial_num":72,"trial_length":7,"click_num":3,"RT":1223.699999999255,"action":1,"reward":-2.9},{"phase":"TASK","trial_num":72,"trial_length":7,"click_num":4,"RT":640.4000000022352,"action":1,"reward":-3.1},{"phase":"TASK","trial_num":72,"trial_length":7,"click_num":5,"RT":663.8999999985099,"action":1,"reward":-2.9},{"phase":"TASK","trial_num":72,"trial_length":7,"click_num":6,"RT":583.6999999992549,"action":0,"reward":-2.5},{"phase":"TASK","trial_num":72,"trial_length":7,"click_num":7,"RT":568.8000000007451,"action":0,"reward":-2.5},{"phase":"TASK","trial_num":73,"trial_length":5,"click_num":1,"RT":655.8999999985099,"action":1,"reward":-2.9},{"phase":"TASK","trial_num":73,"trial_length":5,"click_num":2,"RT":655.8999999985099,"action":1,"reward":-2.8},{"phase":"TASK","trial_num":73,"trial_length":5,"click_num":3,"RT":664.3000000007451,"action":1,"reward":-3.9},{"phase":"TASK","trial_num":73,"trial_length":5,"click_num":4,"RT":807.6999999992549,"action":0,"reward":-2.8},{"phase":"TASK","trial_num":73,"trial_length":5,"click_num":5,"RT":992,"action":1,"reward":-3},{"phase":"TASK","trial_num":74,"trial_length":10,"click_num":1,"RT":632.3999999985099,"action":1,"reward":-1.9},{"phase":"TASK","trial_num":74,"trial_length":10,"click_num":2,"RT":687.5,"action":1,"reward":-3.9},{"phase":"TASK","trial_num":74,"trial_length":10,"click_num":3,"RT":687.8000000007451,"action":1,"reward":-3.3},{"phase":"TASK","trial_num":74,"trial_length":10,"click_num":4,"RT":632.8000000007451,"action":0,"reward":-1.9},{"phase":"TASK","trial_num":74,"trial_length":10,"click_num":5,"RT":511.5,"action":0,"reward":-1.9},{"phase":"TASK","trial_num":74,"trial_length":10,"click_num":6,"RT":520.3000000007451,"action":0,"reward":-1.9},{"phase":"TASK","trial_num":74,"trial_length":10,"click_num":7,"RT":504.0999999977648,"action":0,"reward":-1.9},{"phase":"TASK","trial_num":74,"trial_length":10,"click_num":8,"RT":447.4000000022352,"action":0,"reward":-1.9},{"phase":"TASK","trial_num":74,"trial_length":10,"click_num":9,"RT":1624.5,"action":0,"reward":-1.9},{"phase":"TASK","trial_num":74,"trial_length":10,"click_num":10,"RT":559.5,"action":0,"reward":-1.9},{"phase":"TASK","trial_num":75,"trial_length":6,"click_num":1,"RT":840.3000000007451,"action":1,"reward":-4},{"phase":"TASK","trial_num":75,"trial_length":6,"click_num":2,"RT":655.8999999985099,"action":1,"reward":-3},{"phase":"TASK","trial_num":75,"trial_length":6,"click_num":3,"RT":647.5,"action":1,"reward":-3.5},{"phase":"TASK","trial_num":75,"trial_length":6,"click_num":4,"RT":688.3000000007451,"action":1,"reward":-3.6},{"phase":"TASK","trial_num":75,"trial_length":6,"click_num":5,"RT":672.1000000014901,"action":1,"reward":-3.3},{"phase":"TASK","trial_num":75,"trial_length":6,"click_num":6,"RT":871.5999999977648,"action":1,"reward":-2.5},{"phase":"TASK","trial_num":76,"trial_length":9,"click_num":1,"RT":1728.199999999255,"action":1,"reward":-2.3},{"phase":"TASK","trial_num":76,"trial_length":9,"click_num":2,"RT":695.5,"action":1,"reward":-2},{"phase":"TASK","trial_num":76,"trial_length":9,"click_num":3,"RT":688.0999999977648,"action":1,"reward":-3.6},{"phase":"TASK","trial_num":76,"trial_length":9,"click_num":4,"RT":783.9000000022352,"action":1,"reward":-3.4},{"phase":"TASK","trial_num":76,"trial_length":9,"click_num":5,"RT":680.0999999977648,"action":1,"reward":-3.5},{"phase":"TASK","trial_num":76,"trial_length":9,"click_num":6,"RT":536,"action":0,"reward":-2},{"phase":"TASK","trial_num":76,"trial_length":9,"click_num":7,"RT":488,"action":0,"reward":-2},{"phase":"TASK","trial_num":76,"trial_length":9,"click_num":8,"RT":471.9000000022352,"action":0,"reward":-2},{"phase":"TASK","trial_num":76,"trial_length":9,"click_num":9,"RT":1472,"action":0,"reward":-2},{"phase":"TASK","trial_num":77,"trial_length":10,"click_num":1,"RT":751.1999999992549,"action":1,"reward":-1.1},{"phase":"TASK","trial_num":77,"trial_length":10,"click_num":2,"RT":1743.9000000022352,"action":0,"reward":-1.1},{"phase":"TASK","trial_num":77,"trial_length":10,"click_num":3,"RT":584.0999999977648,"action":0,"reward":-1.1},{"phase":"TASK","trial_num":77,"trial_length":10,"click_num":4,"RT":527.9000000022352,"action":0,"reward":-1.1},{"phase":"TASK","trial_num":77,"trial_length":10,"click_num":5,"RT":536.6999999992549,"action":0,"reward":-1.1},{"phase":"TASK","trial_num":77,"trial_length":10,"click_num":6,"RT":527.3999999985099,"action":0,"reward":-1.1},{"phase":"TASK","trial_num":77,"trial_length":10,"click_num":7,"RT":535.8000000007451,"action":0,"reward":-1.1},{"phase":"TASK","trial_num":77,"trial_length":10,"click_num":8,"RT":528.1999999992549,"action":0,"reward":-1.1},{"phase":"TASK","trial_num":77,"trial_length":10,"click_num":9,"RT":560.6000000014901,"action":0,"reward":-1.1},{"phase":"TASK","trial_num":77,"trial_length":10,"click_num":10,"RT":519.1999999992549,"action":0,"reward":-1.1},{"phase":"TASK","trial_num":78,"trial_length":9,"click_num":1,"RT":1223.6000000014901,"action":1,"reward":-3},{"phase":"TASK","trial_num":78,"trial_length":9,"click_num":2,"RT":928,"action":1,"reward":-2.8},{"phase":"TASK","trial_num":78,"trial_length":9,"click_num":3,"RT":648,"action":1,"reward":-2.5},{"phase":"TASK","trial_num":78,"trial_length":9,"click_num":4,"RT":640.5999999977648,"action":1,"reward":-1.7},{"phase":"TASK","trial_num":78,"trial_length":9,"click_num":5,"RT":655.5,"action":1,"reward":-4.3},{"phase":"TASK","trial_num":78,"trial_length":9,"click_num":6,"RT":873,"action":0,"reward":-1.7},{"phase":"TASK","trial_num":78,"trial_length":9,"click_num":7,"RT":487,"action":0,"reward":-1.7},{"phase":"TASK","trial_num":78,"trial_length":9,"click_num":8,"RT":1295.9000000022352,"action":0,"reward":-1.7},{"phase":"TASK","trial_num":78,"trial_length":9,"click_num":9,"RT":535.8999999985099,"action":0,"reward":-1.7},{"phase":"TASK","trial_num":79,"trial_length":5,"click_num":1,"RT":631.3000000007451,"action":1,"reward":-3.7},{"phase":"TASK","trial_num":79,"trial_length":5,"click_num":2,"RT":608.5999999977648,"action":1,"reward":-4.1},{"phase":"TASK","trial_num":79,"trial_length":5,"click_num":3,"RT":1264.300000000745,"action":1,"reward":-2.2},{"phase":"TASK","trial_num":79,"trial_length":5,"click_num":4,"RT":599.1000000014901,"action":1,"reward":-2.9},{"phase":"TASK","trial_num":79,"trial_length":5,"click_num":5,"RT":592.0999999977648,"action":0,"reward":-2.2},{"phase":"TASK","trial_num":80,"trial_length":10,"click_num":1,"RT":695.6000000014901,"action":1,"reward":-2.5},{"phase":"TASK","trial_num":80,"trial_length":10,"click_num":2,"RT":599.5,"action":1,"reward":-3},{"phase":"TASK","trial_num":80,"trial_length":10,"click_num":3,"RT":616.5,"action":1,"reward":-2.6},{"phase":"TASK","trial_num":80,"trial_length":10,"click_num":4,"RT":567.6999999992549,"action":1,"reward":-2.7},{"phase":"TASK","trial_num":80,"trial_length":10,"click_num":5,"RT":623.8999999985099,"action":1,"reward":-3},{"phase":"TASK","trial_num":80,"trial_length":10,"click_num":6,"RT":656,"action":1,"reward":-3.4},{"phase":"TASK","trial_num":80,"trial_length":10,"click_num":7,"RT":599.9000000022352,"action":0,"reward":-2.5},{"phase":"TASK","trial_num":80,"trial_length":10,"click_num":8,"RT":568,"action":0,"reward":-2.5},{"phase":"TASK","trial_num":80,"trial_length":10,"click_num":9,"RT":592.5999999977648,"action":0,"reward":-2.5},{"phase":"TASK","trial_num":80,"trial_length":10,"click_num":10,"RT":583.5,"action":0,"reward":-2.5},{"phase":"TASK","trial_num":81,"trial_length":6,"click_num":1,"RT":679.5,"action":1,"reward":-3.3},{"phase":"TASK","trial_num":81,"trial_length":6,"click_num":2,"RT":608.0999999977648,"action":1,"reward":-3.1},{"phase":"TASK","trial_num":81,"trial_length":6,"click_num":3,"RT":1272.2000000029802,"action":1,"reward":-3.9},{"phase":"TASK","trial_num":81,"trial_length":6,"click_num":4,"RT":663.7999999970198,"action":1,"reward":-3.5},{"phase":"TASK","trial_num":81,"trial_length":6,"click_num":5,"RT":639.9000000022352,"action":1,"reward":-3},{"phase":"TASK","trial_num":81,"trial_length":6,"click_num":6,"RT":1111.5999999977648,"action":1,"reward":-3.6},{"phase":"TASK","trial_num":82,"trial_length":7,"click_num":1,"RT":1048.5,"action":1,"reward":-3.3},{"phase":"TASK","trial_num":82,"trial_length":7,"click_num":2,"RT":624.1999999992549,"action":1,"reward":-2.5},{"phase":"TASK","trial_num":82,"trial_length":7,"click_num":3,"RT":1335,"action":1,"reward":-3},{"phase":"TASK","trial_num":82,"trial_length":7,"click_num":4,"RT":672.6999999992549,"action":1,"reward":-3.8},{"phase":"TASK","trial_num":82,"trial_length":7,"click_num":5,"RT":1079.300000000745,"action":1,"reward":-2.2},{"phase":"TASK","trial_num":82,"trial_length":7,"click_num":6,"RT":616.6999999992549,"action":0,"reward":-2.2},{"phase":"TASK","trial_num":82,"trial_length":7,"click_num":7,"RT":583.8999999985099,"action":0,"reward":-2.2},{"phase":"TASK","trial_num":83,"trial_length":9,"click_num":1,"RT":607.1999999992549,"action":1,"reward":-3.5},{"phase":"TASK","trial_num":83,"trial_length":9,"click_num":2,"RT":1480,"action":1,"reward":-4.8},{"phase":"TASK","trial_num":83,"trial_length":9,"click_num":3,"RT":1183.800000000745,"action":1,"reward":-3.2},{"phase":"TASK","trial_num":83,"trial_length":9,"click_num":4,"RT":592.1999999992549,"action":1,"reward":-2.3},{"phase":"TASK","trial_num":83,"trial_length":9,"click_num":5,"RT":639.9000000022352,"action":1,"reward":-2.8},{"phase":"TASK","trial_num":83,"trial_length":9,"click_num":6,"RT":1328.199999999255,"action":1,"reward":-2.7},{"phase":"TASK","trial_num":83,"trial_length":9,"click_num":7,"RT":527.8000000007451,"action":0,"reward":-2.3},{"phase":"TASK","trial_num":83,"trial_length":9,"click_num":8,"RT":504.80000000074506,"action":0,"reward":-2.3},{"phase":"TASK","trial_num":83,"trial_length":9,"click_num":9,"RT":975.2999999970198,"action":0,"reward":-2.3},{"phase":"TASK","trial_num":84,"trial_length":10,"click_num":1,"RT":631.8999999985099,"action":1,"reward":-2.6},{"phase":"TASK","trial_num":84,"trial_length":10,"click_num":2,"RT":983.5,"action":1,"reward":-2.9},{"phase":"TASK","trial_num":84,"trial_length":10,"click_num":3,"RT":575.4000000022352,"action":1,"reward":-3.2},{"phase":"TASK","trial_num":84,"trial_length":10,"click_num":4,"RT":584.2999999970198,"action":1,"reward":-2.9},{"phase":"TASK","trial_num":84,"trial_length":10,"click_num":5,"RT":616,"action":1,"reward":-2.6},{"phase":"TASK","trial_num":84,"trial_length":10,"click_num":6,"RT":720.4000000022352,"action":1,"reward":-2},{"phase":"TASK","trial_num":84,"trial_length":10,"click_num":7,"RT":1071.8999999985099,"action":1,"reward":-2.1},{"phase":"TASK","trial_num":84,"trial_length":10,"click_num":8,"RT":1512.199999999255,"action":0,"reward":-2},{"phase":"TASK","trial_num":84,"trial_length":10,"click_num":9,"RT":535.5,"action":0,"reward":-2},{"phase":"TASK","trial_num":84,"trial_length":10,"click_num":10,"RT":544.5,"action":0,"reward":-2},{"phase":"TASK","trial_num":85,"trial_length":5,"click_num":1,"RT":599.6999999992549,"action":1,"reward":-2.7},{"phase":"TASK","trial_num":85,"trial_length":5,"click_num":2,"RT":583.5999999977648,"action":1,"reward":-2.6},{"phase":"TASK","trial_num":85,"trial_length":5,"click_num":3,"RT":640.3000000007451,"action":1,"reward":-4.2},{"phase":"TASK","trial_num":85,"trial_length":5,"click_num":4,"RT":703.6999999992549,"action":1,"reward":-3.6},{"phase":"TASK","trial_num":85,"trial_length":5,"click_num":5,"RT":576,"action":0,"reward":-2.6},{"phase":"TASK","trial_num":86,"trial_length":5,"click_num":1,"RT":903.6999999992549,"action":1,"reward":-2.9},{"phase":"TASK","trial_num":86,"trial_length":5,"click_num":2,"RT":600.5,"action":1,"reward":-3.3},{"phase":"TASK","trial_num":86,"trial_length":5,"click_num":3,"RT":1015.5999999977648,"action":1,"reward":-2.4},{"phase":"TASK","trial_num":86,"trial_length":5,"click_num":4,"RT":671.8000000007451,"action":1,"reward":-3.1},{"phase":"TASK","trial_num":86,"trial_length":5,"click_num":5,"RT":2144,"action":0,"reward":-2.4},{"phase":"TASK","trial_num":87,"trial_length":6,"click_num":1,"RT":599.2999999970198,"action":1,"reward":-2.8},{"phase":"TASK","trial_num":87,"trial_length":6,"click_num":2,"RT":624,"action":1,"reward":-3.4},{"phase":"TASK","trial_num":87,"trial_length":6,"click_num":3,"RT":664,"action":1,"reward":-2.2},{"phase":"TASK","trial_num":87,"trial_length":6,"click_num":4,"RT":599.9000000022352,"action":1,"reward":-3.8},{"phase":"TASK","trial_num":87,"trial_length":6,"click_num":5,"RT":1264.3999999985099,"action":0,"reward":-2.2},{"phase":"TASK","trial_num":87,"trial_length":6,"click_num":6,"RT":1632.300000000745,"action":0,"reward":-2.2},{"phase":"TASK","trial_num":88,"trial_length":8,"click_num":1,"RT":719.8999999985099,"action":1,"reward":-4},{"phase":"TASK","trial_num":88,"trial_length":8,"click_num":2,"RT":672.4000000022352,"action":1,"reward":-1.7},{"phase":"TASK","trial_num":88,"trial_length":8,"click_num":3,"RT":783.5,"action":1,"reward":-2.3},{"phase":"TASK","trial_num":88,"trial_length":8,"click_num":4,"RT":1064.5,"action":0,"reward":-1.7},{"phase":"TASK","trial_num":88,"trial_length":8,"click_num":5,"RT":551.5,"action":0,"reward":-1.7},{"phase":"TASK","trial_num":88,"trial_length":8,"click_num":6,"RT":552,"action":0,"reward":-1.7},{"phase":"TASK","trial_num":88,"trial_length":8,"click_num":7,"RT":560.5999999977648,"action":0,"reward":-1.7},{"phase":"TASK","trial_num":88,"trial_length":8,"click_num":8,"RT":520.5,"action":0,"reward":-1.7},{"phase":"TASK","trial_num":89,"trial_length":5,"click_num":1,"RT":783.8000000007451,"action":1,"reward":-3.6},{"phase":"TASK","trial_num":89,"trial_length":5,"click_num":2,"RT":760.1000000014901,"action":1,"reward":-2.5},{"phase":"TASK","trial_num":89,"trial_length":5,"click_num":3,"RT":624,"action":1,"reward":-3.6},{"phase":"TASK","trial_num":89,"trial_length":5,"click_num":4,"RT":639.5,"action":1,"reward":-2.8},{"phase":"TASK","trial_num":89,"trial_length":5,"click_num":5,"RT":608,"action":0,"reward":-2.5},{"phase":"TASK","trial_num":90,"trial_length":7,"click_num":1,"RT":712.3999999985099,"action":1,"reward":-4},{"phase":"TASK","trial_num":90,"trial_length":7,"click_num":2,"RT":623.3000000007451,"action":1,"reward":-3.4},{"phase":"TASK","trial_num":90,"trial_length":7,"click_num":3,"RT":680.0999999977648,"action":1,"reward":-3.8},{"phase":"TASK","trial_num":90,"trial_length":7,"click_num":4,"RT":648.3000000007451,"action":1,"reward":-2.3},{"phase":"TASK","trial_num":90,"trial_length":7,"click_num":5,"RT":615.6000000014901,"action":1,"reward":-3},{"phase":"TASK","trial_num":90,"trial_length":7,"click_num":6,"RT":616,"action":0,"reward":-2.3},{"phase":"TASK","trial_num":90,"trial_length":7,"click_num":7,"RT":1200.699999999255,"action":0,"reward":-2.3},{"phase":"TASK","trial_num":91,"trial_length":7,"click_num":1,"RT":3471.199999999255,"action":1,"reward":-3.2},{"phase":"TASK","trial_num":91,"trial_length":7,"click_num":2,"RT":1191.5999999977648,"action":1,"reward":-3},{"phase":"TASK","trial_num":91,"trial_length":7,"click_num":3,"RT":712,"action":1,"reward":-1.8},{"phase":"TASK","trial_num":91,"trial_length":7,"click_num":4,"RT":1376.1000000014901,"action":1,"reward":-3.5},{"phase":"TASK","trial_num":91,"trial_length":7,"click_num":5,"RT":871.8999999985099,"action":0,"reward":-1.8},{"phase":"TASK","trial_num":91,"trial_length":7,"click_num":6,"RT":568,"action":0,"reward":-1.8},{"phase":"TASK","trial_num":91,"trial_length":7,"click_num":7,"RT":552,"action":0,"reward":-1.8},{"phase":"TASK","trial_num":92,"trial_length":9,"click_num":1,"RT":847.8000000007451,"action":1,"reward":-4.4},{"phase":"TASK","trial_num":92,"trial_length":9,"click_num":2,"RT":839.7999999970198,"action":1,"reward":-2.7},{"phase":"TASK","trial_num":92,"trial_length":9,"click_num":3,"RT":712,"action":1,"reward":-3.3},{"phase":"TASK","trial_num":92,"trial_length":9,"click_num":4,"RT":687.9000000022352,"action":1,"reward":-1.7},{"phase":"TASK","trial_num":92,"trial_length":9,"click_num":5,"RT":984.0999999977648,"action":1,"reward":-3.2},{"phase":"TASK","trial_num":92,"trial_length":9,"click_num":6,"RT":656,"action":0,"reward":-1.7},{"phase":"TASK","trial_num":92,"trial_length":9,"click_num":7,"RT":544,"action":0,"reward":-1.7},{"phase":"TASK","trial_num":92,"trial_length":9,"click_num":8,"RT":528,"action":0,"reward":-1.7},{"phase":"TASK","trial_num":92,"trial_length":9,"click_num":9,"RT":560.6000000014901,"action":0,"reward":-1.7},{"phase":"TASK","trial_num":93,"trial_length":8,"click_num":1,"RT":951.8999999985099,"action":1,"reward":-3.2},{"phase":"TASK","trial_num":93,"trial_length":8,"click_num":2,"RT":735.9000000022352,"action":1,"reward":-1.8},{"phase":"TASK","trial_num":93,"trial_length":8,"click_num":3,"RT":864.0999999977648,"action":1,"reward":-3.5},{"phase":"TASK","trial_num":93,"trial_length":8,"click_num":4,"RT":800,"action":1,"reward":-2.8},{"phase":"TASK","trial_num":93,"trial_length":8,"click_num":5,"RT":768,"action":0,"reward":-1.8},{"phase":"TASK","trial_num":93,"trial_length":8,"click_num":6,"RT":1064,"action":0,"reward":-1.8},{"phase":"TASK","trial_num":93,"trial_length":8,"click_num":7,"RT":624,"action":0,"reward":-1.8},{"phase":"TASK","trial_num":93,"trial_length":8,"click_num":8,"RT":1768,"action":0,"reward":-1.8},{"phase":"TASK","trial_num":94,"trial_length":9,"click_num":1,"RT":1095.7999999970198,"action":1,"reward":-3.4},{"phase":"TASK","trial_num":94,"trial_length":9,"click_num":2,"RT":1656,"action":1,"reward":-3.3},{"phase":"TASK","trial_num":94,"trial_length":9,"click_num":3,"RT":976.5,"action":1,"reward":-2.1},{"phase":"TASK","trial_num":94,"trial_length":9,"click_num":4,"RT":911.4000000022352,"action":1,"reward":-2},{"phase":"TASK","trial_num":94,"trial_length":9,"click_num":5,"RT":888.0999999977648,"action":1,"reward":-2.7},{"phase":"TASK","trial_num":94,"trial_length":9,"click_num":6,"RT":1072,"action":1,"reward":-4.1},{"phase":"TASK","trial_num":94,"trial_length":9,"click_num":7,"RT":592,"action":0,"reward":-2},{"phase":"TASK","trial_num":94,"trial_length":9,"click_num":8,"RT":520,"action":0,"reward":-2},{"phase":"TASK","trial_num":94,"trial_length":9,"click_num":9,"RT":568,"action":0,"reward":-2},{"phase":"TASK","trial_num":95,"trial_length":10,"click_num":1,"RT":903.0999999977648,"action":1,"reward":-2.4},{"phase":"TASK","trial_num":95,"trial_length":10,"click_num":2,"RT":927.9000000022352,"action":1,"reward":-2.7},{"phase":"TASK","trial_num":95,"trial_length":10,"click_num":3,"RT":896.0999999977648,"action":1,"reward":-3.4},{"phase":"TASK","trial_num":95,"trial_length":10,"click_num":4,"RT":848.1000000014901,"action":1,"reward":-2.7},{"phase":"TASK","trial_num":95,"trial_length":10,"click_num":5,"RT":831.8999999985099,"action":1,"reward":-3.5},{"phase":"TASK","trial_num":95,"trial_length":10,"click_num":6,"RT":1039.9000000022352,"action":1,"reward":-2.8},{"phase":"TASK","trial_num":95,"trial_length":10,"click_num":7,"RT":696.0999999977648,"action":0,"reward":-2.4},{"phase":"TASK","trial_num":95,"trial_length":10,"click_num":8,"RT":1024.1000000014901,"action":0,"reward":-2.4},{"phase":"TASK","trial_num":95,"trial_length":10,"click_num":9,"RT":1031.8999999985099,"action":0,"reward":-2.4},{"phase":"TASK","trial_num":95,"trial_length":10,"click_num":10,"RT":1272,"action":0,"reward":-2.4},{"phase":"TASK","trial_num":96,"trial_length":9,"click_num":1,"RT":879.8999999985099,"action":1,"reward":-3.1},{"phase":"TASK","trial_num":96,"trial_length":9,"click_num":2,"RT":1247.8999999985099,"action":1,"reward":-4.1},{"phase":"TASK","trial_num":96,"trial_length":9,"click_num":3,"RT":784,"action":1,"reward":-3.8},{"phase":"TASK","trial_num":96,"trial_length":9,"click_num":4,"RT":911.9000000022352,"action":1,"reward":-3.2},{"phase":"TASK","trial_num":96,"trial_length":9,"click_num":5,"RT":816.0999999977648,"action":1,"reward":-3.2},{"phase":"TASK","trial_num":96,"trial_length":9,"click_num":6,"RT":744,"action":1,"reward":-2.9},{"phase":"TASK","trial_num":96,"trial_length":9,"click_num":7,"RT":863.9000000022352,"action":1,"reward":-2.8},{"phase":"TASK","trial_num":96,"trial_length":9,"click_num":8,"RT":824.0999999977648,"action":1,"reward":-3.2},{"phase":"TASK","trial_num":96,"trial_length":9,"click_num":9,"RT":840,"action":1,"reward":-2.2},{"phase":"TASK","trial_num":97,"trial_length":7,"click_num":1,"RT":1423.8999999985099,"action":1,"reward":-3.2},{"phase":"TASK","trial_num":97,"trial_length":7,"click_num":2,"RT":792.3000000007451,"action":1,"reward":-2.8},{"phase":"TASK","trial_num":97,"trial_length":7,"click_num":3,"RT":1055.699999999255,"action":1,"reward":-3.7},{"phase":"TASK","trial_num":97,"trial_length":7,"click_num":4,"RT":1167.9000000022352,"action":1,"reward":-2.9},{"phase":"TASK","trial_num":97,"trial_length":7,"click_num":5,"RT":927.8999999985099,"action":1,"reward":-2.2},{"phase":"TASK","trial_num":97,"trial_length":7,"click_num":6,"RT":832.1000000014901,"action":1,"reward":-2.6},{"phase":"TASK","trial_num":97,"trial_length":7,"click_num":7,"RT":1136.199999999255,"action":0,"reward":-2.2},{"phase":"TASK","trial_num":98,"trial_length":9,"click_num":1,"RT":864.3999999985099,"action":1,"reward":-1.9},{"phase":"TASK","trial_num":98,"trial_length":9,"click_num":2,"RT":2511.5,"action":1,"reward":-2.7},{"phase":"TASK","trial_num":98,"trial_length":9,"click_num":3,"RT":736,"action":0,"reward":-1.9},{"phase":"TASK","trial_num":98,"trial_length":9,"click_num":4,"RT":536,"action":0,"reward":-1.9},{"phase":"TASK","trial_num":98,"trial_length":9,"click_num":5,"RT":536,"action":0,"reward":-1.9},{"phase":"TASK","trial_num":98,"trial_length":9,"click_num":6,"RT":560,"action":0,"reward":-1.9},{"phase":"TASK","trial_num":98,"trial_length":9,"click_num":7,"RT":560.3000000007451,"action":0,"reward":-1.9},{"phase":"TASK","trial_num":98,"trial_length":9,"click_num":8,"RT":559.8000000007451,"action":0,"reward":-1.9},{"phase":"TASK","trial_num":98,"trial_length":9,"click_num":9,"RT":1032.1000000014901,"action":0,"reward":-1.9},{"phase":"TASK","trial_num":99,"trial_length":6,"click_num":1,"RT":1751.7999999970198,"action":1,"reward":-2.2},{"phase":"TASK","trial_num":99,"trial_length":6,"click_num":2,"RT":1215.9000000022352,"action":1,"reward":-2.1},{"phase":"TASK","trial_num":99,"trial_length":6,"click_num":3,"RT":824,"action":1,"reward":-3.1},{"phase":"TASK","trial_num":99,"trial_length":6,"click_num":4,"RT":816.1999999992549,"action":1,"reward":-3.4},{"phase":"TASK","trial_num":99,"trial_length":6,"click_num":5,"RT":1111.8999999985099,"action":0,"reward":-2.1},{"phase":"TASK","trial_num":99,"trial_length":6,"click_num":6,"RT":680,"action":0,"reward":-2.1},{"phase":"TASK","trial_num":100,"trial_length":10,"click_num":1,"RT":879.8000000007451,"action":1,"reward":-3.7},{"phase":"TASK","trial_num":100,"trial_length":10,"click_num":2,"RT":784.0999999977648,"action":1,"reward":-1.7},{"phase":"TASK","trial_num":100,"trial_length":10,"click_num":3,"RT":832,"action":1,"reward":-3.4},{"phase":"TASK","trial_num":100,"trial_length":10,"click_num":4,"RT":688,"action":0,"reward":-1.7},{"phase":"TASK","trial_num":100,"trial_length":10,"click_num":5,"RT":584,"action":0,"reward":-1.7},{"phase":"TASK","trial_num":100,"trial_length":10,"click_num":6,"RT":584,"action":0,"reward":-1.7},{"phase":"TASK","trial_num":100,"trial_length":10,"click_num":7,"RT":648,"action":0,"reward":-1.7},{"phase":"TASK","trial_num":100,"trial_length":10,"click_num":8,"RT":632.4000000022352,"action":0,"reward":-1.7},{"phase":"TASK","trial_num":100,"trial_length":10,"click_num":9,"RT":599.6999999992549,"action":0,"reward":-1.7},{"phase":"TASK","trial_num":100,"trial_length":10,"click_num":10,"RT":687.5,"action":0,"reward":-1.7},{"phase":"TASK","trial_num":101,"trial_length":7,"click_num":1,"RT":807.8999999985099,"action":1,"reward":-2.1},{"phase":"TASK","trial_num":101,"trial_length":7,"click_num":2,"RT":775.8000000007451,"action":1,"reward":-2.2},{"phase":"TASK","trial_num":101,"trial_length":7,"click_num":3,"RT":752.1999999992549,"action":1,"reward":-2.6},{"phase":"TASK","trial_num":101,"trial_length":7,"click_num":4,"RT":791.8000000007451,"action":1,"reward":-2.2},{"phase":"TASK","trial_num":101,"trial_length":7,"click_num":5,"RT":784.8999999985099,"action":0,"reward":-2.1},{"phase":"TASK","trial_num":101,"trial_length":7,"click_num":6,"RT":727.1999999992549,"action":0,"reward":-2.1},{"phase":"TASK","trial_num":101,"trial_length":7,"click_num":7,"RT":696,"action":0,"reward":-2.1},{"phase":"TASK","trial_num":102,"trial_length":8,"click_num":1,"RT":1207.8999999985099,"action":1,"reward":-2.9},{"phase":"TASK","trial_num":102,"trial_length":8,"click_num":2,"RT":767.9000000022352,"action":1,"reward":-2.9},{"phase":"TASK","trial_num":102,"trial_length":8,"click_num":3,"RT":752.3999999985099,"action":1,"reward":-2.6},{"phase":"TASK","trial_num":102,"trial_length":8,"click_num":4,"RT":703.6999999992549,"action":1,"reward":-3.2},{"phase":"TASK","trial_num":102,"trial_length":8,"click_num":5,"RT":992,"action":1,"reward":-3.7},{"phase":"TASK","trial_num":102,"trial_length":8,"click_num":6,"RT":752,"action":1,"reward":-3},{"phase":"TASK","trial_num":102,"trial_length":8,"click_num":7,"RT":944,"action":1,"reward":-3.2},{"phase":"TASK","trial_num":102,"trial_length":8,"click_num":8,"RT":840.1000000014901,"action":1,"reward":-2.3},{"phase":"TASK","trial_num":103,"trial_length":10,"click_num":1,"RT":1391.800000000745,"action":1,"reward":-2.8},{"phase":"TASK","trial_num":103,"trial_length":10,"click_num":2,"RT":1039.8999999985099,"action":1,"reward":-3.6},{"phase":"TASK","trial_num":103,"trial_length":10,"click_num":3,"RT":767.9000000022352,"action":1,"reward":-2.3},{"phase":"TASK","trial_num":103,"trial_length":10,"click_num":4,"RT":816.0999999977648,"action":1,"reward":-2.7},{"phase":"TASK","trial_num":103,"trial_length":10,"click_num":5,"RT":815.9000000022352,"action":1,"reward":-2.1},{"phase":"TASK","trial_num":103,"trial_length":10,"click_num":6,"RT":888.0999999977648,"action":1,"reward":-1.8},{"phase":"TASK","trial_num":103,"trial_length":10,"click_num":7,"RT":976,"action":1,"reward":-3.7},{"phase":"TASK","trial_num":103,"trial_length":10,"click_num":8,"RT":1264.2000000029802,"action":0,"reward":-1.8},{"phase":"TASK","trial_num":103,"trial_length":10,"click_num":9,"RT":519.8999999985099,"action":0,"reward":-1.8},{"phase":"TASK","trial_num":103,"trial_length":10,"click_num":10,"RT":527.8999999985099,"action":0,"reward":-1.8},{"phase":"TASK","trial_num":104,"trial_length":9,"click_num":1,"RT":696,"action":1,"reward":-1.8},{"phase":"TASK","trial_num":104,"trial_length":9,"click_num":2,"RT":768,"action":1,"reward":-3.7},{"phase":"TASK","trial_num":104,"trial_length":9,"click_num":3,"RT":775.8999999985099,"action":1,"reward":-3.3},{"phase":"TASK","trial_num":104,"trial_length":9,"click_num":4,"RT":648,"action":0,"reward":-1.8},{"phase":"TASK","trial_num":104,"trial_length":9,"click_num":5,"RT":520,"action":0,"reward":-1.8},{"phase":"TASK","trial_num":104,"trial_length":9,"click_num":6,"RT":543.9000000022352,"action":0,"reward":-1.8},{"phase":"TASK","trial_num":104,"trial_length":9,"click_num":7,"RT":520.3000000007451,"action":0,"reward":-1.8},{"phase":"TASK","trial_num":104,"trial_length":9,"click_num":8,"RT":2815.699999999255,"action":0,"reward":-1.8},{"phase":"TASK","trial_num":104,"trial_length":9,"click_num":9,"RT":4456.800000000745,"action":0,"reward":-1.8},{"phase":"TASK","trial_num":105,"trial_length":10,"click_num":1,"RT":1951.8999999985099,"action":1,"reward":-2.2},{"phase":"TASK","trial_num":105,"trial_length":10,"click_num":2,"RT":1536,"action":1,"reward":-2.4},{"phase":"TASK","trial_num":105,"trial_length":10,"click_num":3,"RT":776.1000000014901,"action":1,"reward":-3.4},{"phase":"TASK","trial_num":105,"trial_length":10,"click_num":4,"RT":951.8999999985099,"action":1,"reward":-2.8},{"phase":"TASK","trial_num":105,"trial_length":10,"click_num":5,"RT":983.9000000022352,"action":1,"reward":-3},{"phase":"TASK","trial_num":105,"trial_length":10,"click_num":6,"RT":704,"action":1,"reward":-3.2},{"phase":"TASK","trial_num":105,"trial_length":10,"click_num":7,"RT":680,"action":1,"reward":-3.1},{"phase":"TASK","trial_num":105,"trial_length":10,"click_num":8,"RT":664.0999999977648,"action":0,"reward":-2.2},{"phase":"TASK","trial_num":105,"trial_length":10,"click_num":9,"RT":583.9000000022352,"action":0,"reward":-2.2},{"phase":"TASK","trial_num":105,"trial_length":10,"click_num":10,"RT":944,"action":0,"reward":-2.2},{"phase":"TASK","trial_num":106,"trial_length":6,"click_num":1,"RT":864.3999999985099,"action":1,"reward":-3.3},{"phase":"TASK","trial_num":106,"trial_length":6,"click_num":2,"RT":671.3999999985099,"action":1,"reward":-3.1},{"phase":"TASK","trial_num":106,"trial_length":6,"click_num":3,"RT":967.9000000022352,"action":1,"reward":-2.4},{"phase":"TASK","trial_num":106,"trial_length":6,"click_num":4,"RT":1024.0999999977648,"action":1,"reward":-4},{"phase":"TASK","trial_num":106,"trial_length":6,"click_num":5,"RT":672,"action":1,"reward":-3.6},{"phase":"TASK","trial_num":106,"trial_length":6,"click_num":6,"RT":688,"action":1,"reward":-1.9},{"phase":"TASK","trial_num":107,"trial_length":9,"click_num":1,"RT":1351.8999999985099,"action":1,"reward":-3.7},{"phase":"TASK","trial_num":107,"trial_length":9,"click_num":2,"RT":1080,"action":1,"reward":-3.8},{"phase":"TASK","trial_num":107,"trial_length":9,"click_num":3,"RT":712,"action":1,"reward":-3.7},{"phase":"TASK","trial_num":107,"trial_length":9,"click_num":4,"RT":736.1000000014901,"action":1,"reward":-3.2},{"phase":"TASK","trial_num":107,"trial_length":9,"click_num":5,"RT":735.8999999985099,"action":1,"reward":-3.7},{"phase":"TASK","trial_num":107,"trial_length":9,"click_num":6,"RT":711.9000000022352,"action":1,"reward":-2.7},{"phase":"TASK","trial_num":107,"trial_length":9,"click_num":7,"RT":1088.5999999977648,"action":1,"reward":-2.3},{"phase":"TASK","trial_num":107,"trial_length":9,"click_num":8,"RT":1247.6000000014901,"action":1,"reward":-2.7},{"phase":"TASK","trial_num":107,"trial_length":9,"click_num":9,"RT":703.8000000007451,"action":1,"reward":-3.3},{"phase":"TASK","trial_num":108,"trial_length":7,"click_num":1,"RT":1215.800000000745,"action":1,"reward":-3.7},{"phase":"TASK","trial_num":108,"trial_length":7,"click_num":2,"RT":1008,"action":1,"reward":-3.3},{"phase":"TASK","trial_num":108,"trial_length":7,"click_num":3,"RT":720.1999999992549,"action":1,"reward":-2.2},{"phase":"TASK","trial_num":108,"trial_length":7,"click_num":4,"RT":656.1999999992549,"action":1,"reward":-2.7},{"phase":"TASK","trial_num":108,"trial_length":7,"click_num":5,"RT":1144.4000000022352,"action":1,"reward":-3.1},{"phase":"TASK","trial_num":108,"trial_length":7,"click_num":6,"RT":2551.39999999851,"action":0,"reward":-2.2},{"phase":"TASK","trial_num":108,"trial_length":7,"click_num":7,"RT":1632,"action":0,"reward":-2.2},{"phase":"TASK","trial_num":109,"trial_length":10,"click_num":1,"RT":5839.699999999255,"action":1,"reward":-3.2},{"phase":"TASK","trial_num":109,"trial_length":10,"click_num":2,"RT":999.6999999992549,"action":1,"reward":-3.1},{"phase":"TASK","trial_num":109,"trial_length":10,"click_num":3,"RT":1479.8999999985099,"action":1,"reward":-3.9},{"phase":"TASK","trial_num":109,"trial_length":10,"click_num":4,"RT":1311.9000000022352,"action":1,"reward":-3.7},{"phase":"TASK","trial_num":109,"trial_length":10,"click_num":5,"RT":648.1999999992549,"action":1,"reward":-2.5},{"phase":"TASK","trial_num":109,"trial_length":10,"click_num":6,"RT":727.8000000007451,"action":1,"reward":-2.4},{"phase":"TASK","trial_num":109,"trial_length":10,"click_num":7,"RT":664.0999999977648,"action":1,"reward":-3.6},{"phase":"TASK","trial_num":109,"trial_length":10,"click_num":8,"RT":863.9000000022352,"action":1,"reward":-4.5},{"phase":"TASK","trial_num":109,"trial_length":10,"click_num":9,"RT":2088.39999999851,"action":1,"reward":-3},{"phase":"TASK","trial_num":109,"trial_length":10,"click_num":10,"RT":679.6999999992549,"action":0,"reward":-2.4},{"phase":"TASK","trial_num":110,"trial_length":6,"click_num":1,"RT":2311.7999999970198,"action":1,"reward":-3.6},{"phase":"TASK","trial_num":110,"trial_length":6,"click_num":2,"RT":1040,"action":1,"reward":-3.1},{"phase":"TASK","trial_num":110,"trial_length":6,"click_num":3,"RT":728,"action":1,"reward":-3.6},{"phase":"TASK","trial_num":110,"trial_length":6,"click_num":4,"RT":712,"action":1,"reward":-3.1},{"phase":"TASK","trial_num":110,"trial_length":6,"click_num":5,"RT":1160.1000000014901,"action":1,"reward":-2.9},{"phase":"TASK","trial_num":110,"trial_length":6,"click_num":6,"RT":1784,"action":1,"reward":-2.3},{"phase":"TASK","trial_num":111,"trial_length":9,"click_num":1,"RT":776,"action":1,"reward":-2.3},{"phase":"TASK","trial_num":111,"trial_length":9,"click_num":2,"RT":855.9000000022352,"action":1,"reward":-3},{"phase":"TASK","trial_num":111,"trial_length":9,"click_num":3,"RT":1176.0999999977648,"action":1,"reward":-3.1},{"phase":"TASK","trial_num":111,"trial_length":9,"click_num":4,"RT":760,"action":1,"reward":-4.2},{"phase":"TASK","trial_num":111,"trial_length":9,"click_num":5,"RT":808,"action":1,"reward":-2.3},{"phase":"TASK","trial_num":111,"trial_length":9,"click_num":6,"RT":784,"action":0,"reward":-2.3},{"phase":"TASK","trial_num":111,"trial_length":9,"click_num":7,"RT":584,"action":0,"reward":-2.3},{"phase":"TASK","trial_num":111,"trial_length":9,"click_num":8,"RT":600,"action":0,"reward":-2.3},{"phase":"TASK","trial_num":111,"trial_length":9,"click_num":9,"RT":536,"action":0,"reward":-2.3},{"phase":"TASK","trial_num":112,"trial_length":5,"click_num":1,"RT":831.8000000007451,"action":1,"reward":-2.1},{"phase":"TASK","trial_num":112,"trial_length":5,"click_num":2,"RT":727.8000000007451,"action":1,"reward":-3.5},{"phase":"TASK","trial_num":112,"trial_length":5,"click_num":3,"RT":888.1999999992549,"action":1,"reward":-3.2},{"phase":"TASK","trial_num":112,"trial_length":5,"click_num":4,"RT":583.8000000007451,"action":0,"reward":-2.1},{"phase":"TASK","trial_num":112,"trial_length":5,"click_num":5,"RT":1048.800000000745,"action":0,"reward":-2.1},{"phase":"TASK","trial_num":113,"trial_length":10,"click_num":1,"RT":743.7999999970198,"action":1,"reward":-2.7},{"phase":"TASK","trial_num":113,"trial_length":10,"click_num":2,"RT":744,"action":1,"reward":-2.8},{"phase":"TASK","trial_num":113,"trial_length":10,"click_num":3,"RT":704,"action":1,"reward":-3.5},{"phase":"TASK","trial_num":113,"trial_length":10,"click_num":4,"RT":991.9000000022352,"action":1,"reward":-3.6},{"phase":"TASK","trial_num":113,"trial_length":10,"click_num":5,"RT":680.5,"action":1,"reward":-3.1},{"phase":"TASK","trial_num":113,"trial_length":10,"click_num":6,"RT":711.5999999977648,"action":1,"reward":-3.7},{"phase":"TASK","trial_num":113,"trial_length":10,"click_num":7,"RT":1175.9000000022352,"action":0,"reward":-2.7},{"phase":"TASK","trial_num":113,"trial_length":10,"click_num":8,"RT":1072.0999999977648,"action":0,"reward":-2.7},{"phase":"TASK","trial_num":113,"trial_length":10,"click_num":9,"RT":1240,"action":1,"reward":-3},{"phase":"TASK","trial_num":113,"trial_length":10,"click_num":10,"RT":703.9000000022352,"action":0,"reward":-2.7},{"phase":"TASK","trial_num":114,"trial_length":8,"click_num":1,"RT":743.8999999985099,"action":1,"reward":-2.5},{"phase":"TASK","trial_num":114,"trial_length":8,"click_num":2,"RT":719.9000000022352,"action":1,"reward":-3.7},{"phase":"TASK","trial_num":114,"trial_length":8,"click_num":3,"RT":728.0999999977648,"action":1,"reward":-3.1},{"phase":"TASK","trial_num":114,"trial_length":8,"click_num":4,"RT":672,"action":1,"reward":-3.4},{"phase":"TASK","trial_num":114,"trial_length":8,"click_num":5,"RT":807.9000000022352,"action":0,"reward":-2.5},{"phase":"TASK","trial_num":114,"trial_length":8,"click_num":6,"RT":680,"action":0,"reward":-2.5},{"phase":"TASK","trial_num":114,"trial_length":8,"click_num":7,"RT":824.0999999977648,"action":1,"reward":-3.5},{"phase":"TASK","trial_num":114,"trial_length":8,"click_num":8,"RT":664.1000000014901,"action":0,"reward":-2.5},{"phase":"TASK","trial_num":115,"trial_length":10,"click_num":1,"RT":695.7999999970198,"action":1,"reward":-4.2},{"phase":"TASK","trial_num":115,"trial_length":10,"click_num":2,"RT":640.1000000014901,"action":1,"reward":-3.5},{"phase":"TASK","trial_num":115,"trial_length":10,"click_num":3,"RT":671.8999999985099,"action":1,"reward":-1.9},{"phase":"TASK","trial_num":115,"trial_length":10,"click_num":4,"RT":656.5,"action":1,"reward":-4.1},{"phase":"TASK","trial_num":115,"trial_length":10,"click_num":5,"RT":935.4000000022352,"action":0,"reward":-1.9},{"phase":"TASK","trial_num":115,"trial_length":10,"click_num":6,"RT":543.8999999985099,"action":0,"reward":-1.9},{"phase":"TASK","trial_num":115,"trial_length":10,"click_num":7,"RT":560.1000000014901,"action":0,"reward":-1.9},{"phase":"TASK","trial_num":115,"trial_length":10,"click_num":8,"RT":1288.0999999977648,"action":0,"reward":-1.9},{"phase":"TASK","trial_num":115,"trial_length":10,"click_num":9,"RT":623.9000000022352,"action":0,"reward":-1.9},{"phase":"TASK","trial_num":115,"trial_length":10,"click_num":10,"RT":672.0999999977648,"action":0,"reward":-1.9},{"phase":"TASK","trial_num":116,"trial_length":6,"click_num":1,"RT":1999.5,"action":1,"reward":-4.2},{"phase":"TASK","trial_num":116,"trial_length":6,"click_num":2,"RT":1280.199999999255,"action":1,"reward":-3.6},{"phase":"TASK","trial_num":116,"trial_length":6,"click_num":3,"RT":912.0999999977648,"action":1,"reward":-3.4},{"phase":"TASK","trial_num":116,"trial_length":6,"click_num":4,"RT":808.6000000014901,"action":1,"reward":-2.7},{"phase":"TASK","trial_num":116,"trial_length":6,"click_num":5,"RT":1295.3999999985099,"action":1,"reward":-2.8},{"phase":"TASK","trial_num":116,"trial_length":6,"click_num":6,"RT":608,"action":1,"reward":-3.5},{"phase":"TASK","trial_num":117,"trial_length":10,"click_num":1,"RT":1279,"action":1,"reward":-2.4},{"phase":"TASK","trial_num":117,"trial_length":10,"click_num":2,"RT":623.8000000007451,"action":1,"reward":-1.4},{"phase":"TASK","trial_num":117,"trial_length":10,"click_num":3,"RT":648.6999999992549,"action":1,"reward":-3.6},{"phase":"TASK","trial_num":117,"trial_length":10,"click_num":4,"RT":616.5,"action":0,"reward":-1.4},{"phase":"TASK","trial_num":117,"trial_length":10,"click_num":5,"RT":495.3999999985099,"action":0,"reward":-1.4},{"phase":"TASK","trial_num":117,"trial_length":10,"click_num":6,"RT":999.9000000022352,"action":0,"reward":-1.4},{"phase":"TASK","trial_num":117,"trial_length":10,"click_num":7,"RT":551.6999999992549,"action":0,"reward":-1.4},{"phase":"TASK","trial_num":117,"trial_length":10,"click_num":8,"RT":600,"action":0,"reward":-1.4},{"phase":"TASK","trial_num":117,"trial_length":10,"click_num":9,"RT":576.5,"action":0,"reward":-1.4},{"phase":"TASK","trial_num":117,"trial_length":10,"click_num":10,"RT":559.3000000007451,"action":0,"reward":-1.4},{"phase":"TASK","trial_num":118,"trial_length":9,"click_num":1,"RT":1223.8999999985099,"action":1,"reward":-2.7},{"phase":"TASK","trial_num":118,"trial_length":9,"click_num":2,"RT":816.8000000007451,"action":1,"reward":-2.7},{"phase":"TASK","trial_num":118,"trial_length":9,"click_num":3,"RT":679.1000000014901,"action":1,"reward":-2.5},{"phase":"TASK","trial_num":118,"trial_length":9,"click_num":4,"RT":688.0999999977648,"action":1,"reward":-2.7},{"phase":"TASK","trial_num":118,"trial_length":9,"click_num":5,"RT":736.7000000029802,"action":1,"reward":-2.8},{"phase":"TASK","trial_num":118,"trial_length":9,"click_num":6,"RT":695.7999999970198,"action":1,"reward":-3},{"phase":"TASK","trial_num":118,"trial_length":9,"click_num":7,"RT":631.5,"action":0,"reward":-2.5},{"phase":"TASK","trial_num":118,"trial_length":9,"click_num":8,"RT":488.5,"action":0,"reward":-2.5},{"phase":"TASK","trial_num":118,"trial_length":9,"click_num":9,"RT":544,"action":0,"reward":-2.5},{"phase":"TASK","trial_num":119,"trial_length":5,"click_num":1,"RT":1967.699999999255,"action":1,"reward":-2.8},{"phase":"TASK","trial_num":119,"trial_length":5,"click_num":2,"RT":1360,"action":1,"reward":-3.5},{"phase":"TASK","trial_num":119,"trial_length":5,"click_num":3,"RT":1104.1000000014901,"action":1,"reward":-3},{"phase":"TASK","trial_num":119,"trial_length":5,"click_num":4,"RT":2015.8999999985099,"action":0,"reward":-2.8},{"phase":"TASK","trial_num":119,"trial_length":5,"click_num":5,"RT":632.7000000029802,"action":0,"reward":-2.8},{"phase":"TASK","trial_num":120,"trial_length":8,"click_num":1,"RT":647.3000000007451,"action":1,"reward":-3.1},{"phase":"TASK","trial_num":120,"trial_length":8,"click_num":2,"RT":623.8999999985099,"action":1,"reward":-2.9},{"phase":"TASK","trial_num":120,"trial_length":8,"click_num":3,"RT":1024,"action":1,"reward":-2.6},{"phase":"TASK","trial_num":120,"trial_length":8,"click_num":4,"RT":680.6000000014901,"action":1,"reward":-3.2},{"phase":"TASK","trial_num":120,"trial_length":8,"click_num":5,"RT":663.3000000007451,"action":1,"reward":-2.6},{"phase":"TASK","trial_num":120,"trial_length":8,"click_num":6,"RT":736.0999999977648,"action":1,"reward":-3.6},{"phase":"TASK","trial_num":120,"trial_length":8,"click_num":7,"RT":848.1000000014901,"action":1,"reward":-2.8},{"phase":"TASK","trial_num":120,"trial_length":8,"click_num":8,"RT":664.3000000007451,"action":0,"reward":-2.6},{"phase":"TASK","trial_num":121,"trial_length":10,"click_num":1,"RT":648,"action":1,"reward":-4},{"phase":"TASK","trial_num":121,"trial_length":10,"click_num":2,"RT":703.9000000022352,"action":1,"reward":-2},{"phase":"TASK","trial_num":121,"trial_length":10,"click_num":3,"RT":904.8000000007451,"action":1,"reward":-3},{"phase":"TASK","trial_num":121,"trial_length":10,"click_num":4,"RT":935.2999999970198,"action":1,"reward":-2.6},{"phase":"TASK","trial_num":121,"trial_length":10,"click_num":5,"RT":687.9000000022352,"action":1,"reward":-2.6},{"phase":"TASK","trial_num":121,"trial_length":10,"click_num":6,"RT":624.5999999977648,"action":0,"reward":-2},{"phase":"TASK","trial_num":121,"trial_length":10,"click_num":7,"RT":512.4000000022352,"action":0,"reward":-2},{"phase":"TASK","trial_num":121,"trial_length":10,"click_num":8,"RT":615,"action":0,"reward":-2},{"phase":"TASK","trial_num":121,"trial_length":10,"click_num":9,"RT":568,"action":0,"reward":-2},{"phase":"TASK","trial_num":121,"trial_length":10,"click_num":10,"RT":560.5999999977648,"action":0,"reward":-2},{"phase":"TASK","trial_num":122,"trial_length":6,"click_num":1,"RT":992.1000000014901,"action":1,"reward":-2.5},{"phase":"TASK","trial_num":122,"trial_length":6,"click_num":2,"RT":743.8999999985099,"action":1,"reward":-2.8},{"phase":"TASK","trial_num":122,"trial_length":6,"click_num":3,"RT":743.9000000022352,"action":1,"reward":-2.3},{"phase":"TASK","trial_num":122,"trial_length":6,"click_num":4,"RT":720.5,"action":1,"reward":-3.2},{"phase":"TASK","trial_num":122,"trial_length":6,"click_num":5,"RT":640.0999999977648,"action":0,"reward":-2.3},{"phase":"TASK","trial_num":122,"trial_length":6,"click_num":6,"RT":552,"