[
  {
    "phase": "TASK",
    "condition": "Cond4",
    "trial_num": 1,
    "trial_length": 8,
    "click_num": 1,
    "RT": 8799,
    "action": 1,
    "reward": -2.8
  },
  {
    "phase": "TASK",
    "condition": "Cond4",
    "trial_num": 1,
    "trial_length": 8,
    "click_num": 2,
    "RT": 7645,
    "action": 1,
    "reward": -3
  },
  {
    "phase": "TASK",
    "condition": "Cond4",
    "trial_num": 1,
    "trial_length": 8,
    "click_num": 3,
    "RT": 5792,
    "action": 1,
    "reward": -3.5
  },
  {
    "phase": "TASK",
    "condition": "Cond4",
    "trial_num": 1,
    "trial_length": 8,
    "click_num": 4,
    "RT": 4264,
    "action": 1,
    "reward": -3.4
  },
  {
    "phase": "TASK",
    "condition": "Cond4",
    "trial_num": 1,
    "trial_length": 8,
    "click_num": 5,
    "RT": 3296,
    "action": 1,
    "reward": -2.3
  },
  {
    "phase": "TASK",
    "condition": "Cond4",
    "trial_num": 1,
    "trial_length": 8,
    "click_num": 6,
    "RT": 3856,
    "action": 0,
    "reward": -2.3
  },
  {
    "phase": "TASK",
    "condition": "Cond4",
    "trial_num": 1,
    "trial_length": 8,
    "click_num": 7,
    "RT": 1848,
    "action": 0,
    "reward": -2.3
  },
  {
    "phase": "TASK",
    "condition": "Cond4",
    "trial_num": 1,
    "trial_length": 8,
    "click_num": 8,
    "RT": 3576,
    "action": 0,
    "reward": -2.3
  },
  {
    "phase": "TASK",
    "condition": "Cond4",
    "trial_num": 2,
    "trial_length": 5,
    "click_num": 1,
    "RT": 2863,
    "action": 1,
    "reward": -3.5
  },
  {
    "phase": "TASK",
    "condition": "Cond4",
    "trial_num": 2,
    "trial_length": 5,
    "click_num": 2,
    "RT": 2656,
    "action": 1,
    "reward": -3.4
  },
  {
    "phase": "TASK",
    "condition": "Cond4",
    "trial_num": 2,
    "trial_length": 5,
    "click_num": 3,
    "RT": 1960,
    "action": 1,
    "reward": -3
  },
  {
    "phase": "TASK",
    "condition": "Cond4",
    "trial_num": 2,
    "trial_length": 5,
    "click_num": 4,
    "RT": 1977,
    "action": 1,
    "reward": -3.3
  },
  {
    "phase": "TASK",
    "condition": "Cond4",
    "trial_num": 2,
    "trial_length": 5,
    "click_num": 5,
    "RT": 2623,
    "action": 0,
    "reward": -3
  },
  {
    "phase": "TASK",
    "condition": "Cond4",
    "trial_num": 3,
    "trial_length": 9,
    "click_num": 1,
    "RT": 1911,
    "action": 1,
    "reward": -4.8
  },
  {
    "phase": "TASK",
    "condition": "Cond4",
    "trial_num": 3,
    "trial_length": 9,
    "click_num": 2,
    "RT": 2474,
    "action": 1,
    "reward": -3.9
  },
  {
    "phase": "TASK",
    "condition": "Cond4",
    "trial_num": 3,
    "trial_length": 9,
    "click_num": 3,
    "RT": 1590,
    "action": 1,
    "reward": -3.7
  },
  {
    "phase": "TASK",
    "condition": "Cond4",
    "trial_num": 3,
    "trial_length": 9,
    "click_num": 4,
    "RT": 1664,
    "action": 1,
    "reward": -2.6
  },
  {
    "phase": "TASK",
    "condition": "Cond4",
    "trial_num": 3,
    "trial_length": 9,
    "click_num": 5,
    "RT": 2120,
    "action": 1,
    "reward": -2.8
  },
  {
    "phase": "TASK",
    "condition": "Cond4",
    "trial_num": 3,
    "trial_length": 9,
    "click_num": 6,
    "RT": 2319,
    "action": 0,
    "reward": -2.6
  },
  {
    "phase": "TASK",
    "condition": "Cond4",
    "trial_num": 3,
    "trial_length": 9,
    "click_num": 7,
    "RT": 1859,
    "action": 1,
    "reward": -2.7
  },
  {
    "phase": "TASK",
    "condition": "Cond4",
    "trial_num": 3,
    "trial_length": 9,
    "click_num": 8,
    "RT": 2525,
    "action": 1,
    "reward": -2.6
  },
  {
    "phase": "TASK",
    "condition": "Cond4",
    "trial_num": 3,
    "trial_length": 9,
    "click_num": 9,
    "RT": 2403,
    "action": 0,
    "reward": -2.6
  },
  {
    "phase": "TASK",
    "condition": "Cond4",
    "trial_num": 4,
    "trial_length": 10,
    "click_num": 1,
    "RT": 3907,
    "action": 1,
    "reward": -3.5
  },
  {
    "phase": "TASK",
    "condition": "Cond4",
    "trial_num": 4,
    "trial_length": 10,
    "click_num": 2,
    "RT": 1995,
    "action": 1,
    "reward": -1.6
  },
  {
    "phase": "TASK",
    "condition": "Cond4",
    "trial_num": 4,
    "trial_length": 10,
    "click_num": 3,
    "RT": 2104,
    "action": 0,
    "reward": -1.6
  },
  {
    "phase": "TASK",
    "condition": "Cond4",
    "trial_num": 4,
    "trial_length": 10,
    "click_num": 4,
    "RT": 1263,
    "action": 0,
    "reward": -1.6
  },
  {
    "phase": "TASK",
    "condition": "Cond4",
    "trial_num": 4,
    "trial_length": 10,
    "click_num": 5,
    "RT": 1209,
    "action": 0,
    "reward": -1.6
  },
  {
    "phase": "TASK",
    "condition": "Cond4",
    "trial_num": 4,
    "trial_length": 10,
    "click_num": 6,
    "RT": 1272,
    "action": 0,
    "reward": -1.6
  },
  {
    "phase": "TASK",
    "condition": "Cond4",
    "trial_num": 4,
    "trial_length": 10,
    "click_num": 7,
    "RT": 1151,
    "action": 0,
    "reward": -1.6
  },
  {
    "phase": "TASK",
    "condition": "Cond4",
    "trial_num": 4,
    "trial_length": 10,
    "click_num": 8,
    "RT": 1085,
    "action": 0,
    "reward": -1.6
  },
  {
    "phase": "TASK",
    "condition": "Cond4",
    "trial_num": 4,
    "trial_length": 10,
    "click_num": 9,
    "RT": 1148,
    "action": 0,
    "reward": -1.6
  },
  {
    "phase": "TASK",
    "condition": "Cond4",
    "trial_num": 4,
    "trial_length": 10,
    "click_num": 10,
    "RT": 1415,
    "action": 0,
    "reward": -1.6
  },
  {
    "phase": "TASK",
    "condition": "Cond4",
    "trial_num": 5,
    "trial_length": 10,
    "click_num": 1,
    "RT": 1800,
    "action": 1,
    "reward": -3.5
  },
  {
    "phase": "TASK",
    "condition": "Cond4",
    "trial_num": 5,
    "trial_length": 10,
    "click_num": 2,
    "RT": 1782,
    "action": 1,
    "reward": -2.3
  },
  {
    "phase": "TASK",
    "condition": "Cond4",
    "trial_num": 5,
    "trial_length": 10,
    "click_num": 3,
    "RT": 2323,
    "action": 1,
    "reward": -4
  },
  {
    "phase": "TASK",
    "condition": "Cond4",
    "trial_num": 5,
    "trial_length": 10,
    "click_num": 4,
    "RT": 1741,
    "action": 1,
    "reward": -4.1
  },
  {
    "phase": "TASK",
    "condition": "Cond4",
    "trial_num": 5,
    "trial_length": 10,
    "click_num": 5,
    "RT": 1616,
    "action": 1,
    "reward": -2.9
  },
  {
    "phase": "TASK",
    "condition": "Cond4",
    "trial_num": 5,
    "trial_length": 10,
    "click_num": 6,
    "RT": 1746,
    "action": 0,
    "reward": -2.3
  },
  {
    "phase": "TASK",
    "condition": "Cond4",
    "trial_num": 5,
    "trial_length": 10,
    "click_num": 7,
    "RT": 1302,
    "action": 0,
    "reward": -2.3
  },
  {
    "phase": "TASK",
    "condition": "Cond4",
    "trial_num": 5,
    "trial_length": 10,
    "click_num": 8,
    "RT": 1391,
    "action": 1,
    "reward": -2.5
  },
  {
    "phase": "TASK",
    "condition": "Cond4",
    "trial_num": 5,
    "trial_length": 10,
    "click_num": 9,
    "RT": 1508,
    "action": 0,
    "reward": -2.3
  },
  {
    "phase": "TASK",
    "condition": "Cond4",
    "trial_num": 5,
    "trial_length": 10,
    "click_num": 10,
    "RT": 1269,
    "action": 0,
    "reward": -2.3
  },
  {
    "phase": "TASK",
    "condition": "Cond4",
    "trial_num": 6,
    "trial_length": 10,
    "click_num": 1,
    "RT": 2079,
    "action": 1,
    "reward": -3.9
  },
  {
    "phase": "TASK",
    "condition": "Cond4",
    "trial_num": 6,
    "trial_length": 10,
    "click_num": 2,
    "RT": 1719,
    "action": 1,
    "reward": -2.5
  },
  {
    "phase": "TASK",
    "condition": "Cond4",
    "trial_num": 6,
    "trial_length": 10,
    "click_num": 3,
    "RT": 2904,
    "action": 0,
    "reward": -2.5
  },
  {
    "phase": "TASK",
    "condition": "Cond4",
    "trial_num": 6,
    "trial_length": 10,
    "click_num": 4,
    "RT": 1780,
    "action": 0,
    "reward": -2.5
  },
  {
    "phase": "TASK",
    "condition": "Cond4",
    "trial_num": 6,
    "trial_length": 10,
    "click_num": 5,
    "RT": 1253,
    "action": 1,
    "reward": -3.4
  },
  {
    "phase": "TASK",
    "condition": "Cond4",
    "trial_num": 6,
    "trial_length": 10,
    "click_num": 6,
    "RT": 1623,
    "action": 0,
    "reward": -2.5
  },
  {
    "phase": "TASK",
    "condition": "Cond4",
    "trial_num": 6,
    "trial_length": 10,
    "click_num": 7,
    "RT": 1256,
    "action": 0,
    "reward": -2.5
  },
  {
    "phase": "TASK",
    "condition": "Cond4",
    "trial_num": 6,
    "trial_length": 10,
    "click_num": 8,
    "RT": 1256,
    "action": 0,
    "reward": -2.5
  },
  {
    "phase": "TASK",
    "condition": "Cond4",
    "trial_num": 6,
    "trial_length": 10,
    "click_num": 9,
    "RT": 1232,
    "action": 0,
    "reward": -2.5
  },
  {
    "phase": "TASK",
    "condition": "Cond4",
    "trial_num": 6,
    "trial_length": 10,
    "click_num": 10,
    "RT": 1232,
    "action": 0,
    "reward": -2.5
  },
  {
    "phase": "TASK",
    "condition": "Cond4",
    "trial_num": 7,
    "trial_length": 10,
    "click_num": 1,
    "RT": 1611,
    "action": 1,
    "reward": -2.6
  },
  {
    "phase": "TASK",
    "condition": "Cond4",
    "trial_num": 7,
    "trial_length": 10,
    "click_num": 2,
    "RT": 2000,
    "action": 1,
    "reward": -2
  },
  {
    "phase": "TASK",
    "condition": "Cond4",
    "trial_num": 7,
    "trial_length": 10,
    "click_num": 3,
    "RT": 1706,
    "action": 0,
    "reward": -2
  },
  {
    "phase": "TASK",
    "condition": "Cond4",
    "trial_num": 7,
    "trial_length": 10,
    "click_num": 4,
    "RT": 1176,
    "action": 0,
    "reward": -2
  },
  {
    "phase": "TASK",
    "condition": "Cond4",
    "trial_num": 7,
    "trial_length": 10,
    "click_num": 5,
    "RT": 1040,
    "action": 0,
    "reward": -2
  },
  {
    "phase": "TASK",
    "condition": "Cond4",
    "trial_num": 7,
    "trial_length": 10,
    "click_num": 6,
    "RT": 2295,
    "action": 0,
    "reward": -2
  },
  {
    "phase": "TASK",
    "condition": "Cond4",
    "trial_num": 7,
    "trial_length": 10,
    "click_num": 7,
    "RT": 1225,
    "action": 0,
    "reward": -2
  },
  {
    "phase": "TASK",
    "condition": "Cond4",
    "trial_num": 7,
    "trial_length": 10,
    "click_num": 8,
    "RT": 1128,
    "action": 0,
    "reward": -2
  },
  {
    "phase": "TASK",
    "condition": "Cond4",
    "trial_num": 7,
    "trial_length": 10,
    "click_num": 9,
    "RT": 1219,
    "action": 0,
    "reward": -2
  },
  {
    "phase": "TASK",
    "condition": "Cond4",
    "trial_num": 7,
    "trial_length": 10,
    "click_num": 10,
    "RT": 1229,
    "action": 0,
    "reward": -2
  },
  {
    "phase": "TASK",
    "condition": "Cond4",
    "trial_num": 8,
    "trial_length": 7,
    "click_num": 1,
    "RT": 1720,
    "action": 1,
    "reward": -2.9
  },
  {
    "phase": "TASK",
    "condition": "Cond4",
    "trial_num": 8,
    "trial_length": 7,
    "click_num": 2,
    "RT": 1718,
    "action": 1,
    "reward": -2.9
  },
  {
    "phase": "TASK",
    "condition": "Cond4",
    "trial_num": 8,
    "trial_length": 7,
    "click_num": 3,
    "RT": 1609,
    "action": 1,
    "reward": -3
  },
  {
    "phase": "TASK",
    "condition": "Cond4",
    "trial_num": 8,
    "trial_length": 7,
    "click_num": 4,
    "RT": 1576,
    "action": 1,
    "reward": -3.8
  },
  {
    "phase": "TASK",
    "condition": "Cond4",
    "trial_num": 8,
    "trial_length": 7,
    "click_num": 5,
    "RT": 1569,
    "action": 0,
    "reward": -2.9
  },
  {
    "phase": "TASK",
    "condition": "Cond4",
    "trial_num": 8,
    "trial_length": 7,
    "click_num": 6,
    "RT": 1406,
    "action": 1,
    "reward": -2.1
  },
  {
    "phase": "TASK",
    "condition": "Cond4",
    "trial_num": 8,
    "trial_length": 7,
    "click_num": 7,
    "RT": 2065,
    "action": 0,
    "reward": -2.1
  },
  {
    "phase": "TASK",
    "condition": "Cond4",
    "trial_num": 9,
    "trial_length": 6,
    "click_num": 1,
    "RT": 1694,
    "action": 1,
    "reward": -3.5
  },
  {
    "phase": "TASK",
    "condition": "Cond4",
    "trial_num": 9,
    "trial_length": 6,
    "click_num": 2,
    "RT": 1504,
    "action": 1,
    "reward": -3.4
  },
  {
    "phase": "TASK",
    "condition": "Cond4",
    "trial_num": 9,
    "trial_length": 6,
    "click_num": 3,
    "RT": 1576,
    "action": 1,
    "reward": -2.8
  },
  {
    "phase": "TASK",
    "condition": "Cond4",
    "trial_num": 9,
    "trial_length": 6,
    "click_num": 4,
    "RT": 1520,
    "action": 1,
    "reward": -1.8
  },
  {
    "phase": "TASK",
    "condition": "Cond4",
    "trial_num": 9,
    "trial_length": 6,
    "click_num": 5,
    "RT": 1660,
    "action": 0,
    "reward": -1.8
  },
  {
    "phase": "TASK",
    "condition": "Cond4",
    "trial_num": 9,
    "trial_length": 6,
    "click_num": 6,
    "RT": 1382,
    "action": 0,
    "reward": -1.8
  },
  {
    "phase": "TASK",
    "condition": "Cond4",
    "trial_num": 10,
    "trial_length": 8,
    "click_num": 1,
    "RT": 2288,
    "action": 1,
    "reward": -3.4
  },
  {
    "phase": "TASK",
    "condition": "Cond4",
    "trial_num": 10,
    "trial_length": 8,
    "click_num": 2,
    "RT": 1560,
    "action": 1,
    "reward": -2.1
  },
  {
    "phase": "TASK",
    "condition": "Cond4",
    "trial_num": 10,
    "trial_length": 8,
    "click_num": 3,
    "RT": 1792,
    "action": 0,
    "reward": -2.1
  },
  {
    "phase": "TASK",
    "condition": "Cond4",
    "trial_num": 10,
    "trial_length": 8,
    "click_num": 4,
    "RT": 1471,
    "action": 0,
    "reward": -2.1
  },
  {
    "phase": "TASK",
    "condition": "Cond4",
    "trial_num": 10,
    "trial_length": 8,
    "click_num": 5,
    "RT": 1113,
    "action": 0,
    "reward": -2.1
  },
  {
    "phase": "TASK",
    "condition": "Cond4",
    "trial_num": 10,
    "trial_length": 8,
    "click_num": 6,
    "RT": 1128,
    "action": 0,
    "reward": -2.1
  },
  {
    "phase": "TASK",
    "condition": "Cond4",
    "trial_num": 10,
    "trial_length": 8,
    "click_num": 7,
    "RT": 1184,
    "action": 0,
    "reward": -2.1
  },
  {
    "phase": "TASK",
    "condition": "Cond4",
    "trial_num": 10,
    "trial_length": 8,
    "click_num": 8,
    "RT": 1312,
    "action": 0,
    "reward": -2.1
  },
  {
    "phase": "TASK",
    "condition": "Cond4",
    "trial_num": 11,
    "trial_length": 7,
    "click_num": 1,
    "RT": 2348,
    "action": 1,
    "reward": -3.6
  },
  {
    "phase": "TASK",
    "condition": "Cond4",
    "trial_num": 11,
    "trial_length": 7,
    "click_num": 2,
    "RT": 1679,
    "action": 1,
    "reward": -3.1
  },
  {
    "phase": "TASK",
    "condition": "Cond4",
    "trial_num": 11,
    "trial_length": 7,
    "click_num": 3,
    "RT": 1569,
    "action": 1,
    "reward": -3.7
  },
  {
    "phase": "TASK",
    "condition": "Cond4",
    "trial_num": 11,
    "trial_length": 7,
    "click_num": 4,
    "RT": 2096,
    "action": 1,
    "reward": -4.1
  },
  {
    "phase": "TASK",
    "condition": "Cond4",
    "trial_num": 11,
    "trial_length": 7,
    "click_num": 5,
    "RT": 2576,
    "action": 1,
    "reward": -2.4
  },
  {
    "phase": "TASK",
    "condition": "Cond4",
    "trial_num": 11,
    "trial_length": 7,
    "click_num": 6,
    "RT": 1531,
    "action": 0,
    "reward": -2.4
  },
  {
    "phase": "TASK",
    "condition": "Cond4",
    "trial_num": 11,
    "trial_length": 7,
    "click_num": 7,
    "RT": 1301,
    "action": 0,
    "reward": -2.4
  },
  {
    "phase": "TASK",
    "condition": "Cond4",
    "trial_num": 12,
    "trial_length": 8,
    "click_num": 1,
    "RT": 1591,
    "action": 1,
    "reward": -3.2
  },
  {
    "phase": "TASK",
    "condition": "Cond4",
    "trial_num": 12,
    "trial_length": 8,
    "click_num": 2,
    "RT": 1552,
    "action": 1,
    "reward": -2.6
  },
  {
    "phase": "TASK",
    "condition": "Cond4",
    "trial_num": 12,
    "trial_length": 8,
    "click_num": 3,
    "RT": 1616,
    "action": 1,
    "reward": -3.4
  },
  {
    "phase": "TASK",
    "condition": "Cond4",
    "trial_num": 12,
    "trial_length": 8,
    "click_num": 4,
    "RT": 1698,
    "action": 1,
    "reward": -2.5
  },
  {
    "phase": "TASK",
    "condition": "Cond4",
    "trial_num": 12,
    "trial_length": 8,
    "click_num": 5,
    "RT": 1638,
    "action": 0,
    "reward": -2.5
  },
  {
    "phase": "TASK",
    "condition": "Cond4",
    "trial_num": 12,
    "trial_length": 8,
    "click_num": 6,
    "RT": 1152,
    "action": 0,
    "reward": -2.5
  },
  {
    "phase": "TASK",
    "condition": "Cond4",
    "trial_num": 12,
    "trial_length": 8,
    "click_num": 7,
    "RT": 1111,
    "action": 0,
    "reward": -2.5
  },
  {
    "phase": "TASK",
    "condition": "Cond4",
    "trial_num": 12,
    "trial_length": 8,
    "click_num": 8,
    "RT": 1202,
    "action": 0,
    "reward": -2.5
  },
  {
    "phase": "TASK",
    "condition": "Cond4",
    "trial_num": 13,
    "trial_length": 9,
    "click_num": 1,
    "RT": 11830,
    "action": 1,
    "reward": -3.1
  },
  {
    "phase": "TASK",
    "condition": "Cond4",
    "trial_num": 13,
    "trial_length": 9,
    "click_num": 2,
    "RT": 4319,
    "action": 1,
    "reward": -2.6
  },
  {
    "phase": "TASK",
    "condition": "Cond4",
    "trial_num": 13,
    "trial_length": 9,
    "click_num": 3,
    "RT": 1955,
    "action": 1,
    "reward": -3.6
  },
  {
    "phase": "TASK",
    "condition": "Cond4",
    "trial_num": 13,
    "trial_length": 9,
    "click_num": 4,
    "RT": 1597,
    "action": 1,
    "reward": -3.1
  },
  {
    "phase": "TASK",
    "condition": "Cond4",
    "trial_num": 13,
    "trial_length": 9,
    "click_num": 5,
    "RT": 1768,
    "action": 0,
    "reward": -2.6
  },
  {
    "phase": "TASK",
    "condition": "Cond4",
    "trial_num": 13,
    "trial_length": 9,
    "click_num": 6,
    "RT": 1168,
    "action": 1,
    "reward": -2.6
  },
  {
    "phase": "TASK",
    "condition": "Cond4",
    "trial_num": 13,
    "trial_length": 9,
    "click_num": 7,
    "RT": 1808,
    "action": 0,
    "reward": -2.6
  },
  {
    "phase": "TASK",
    "condition": "Cond4",
    "trial_num": 13,
    "trial_length": 9,
    "click_num": 8,
    "RT": 1568,
    "action": 1,
    "reward": -2.9
  },
  {
    "phase": "TASK",
    "condition": "Cond4",
    "trial_num": 13,
    "trial_length": 9,
    "click_num": 9,
    "RT": 1731,
    "action": 0,
    "reward": -2.6
  },
  {
    "phase": "TASK",
    "condition": "Cond4",
    "trial_num": 14,
    "trial_length": 5,
    "click_num": 1,
    "RT": 4603,
    "action": 1,
    "reward": -3.5
  },
  {
    "phase": "TASK",
    "condition": "Cond4",
    "trial_num": 14,
    "trial_length": 5,
    "click_num": 2,
    "RT": 1682,
    "action": 1,
    "reward": -2.9
  },
  {
    "phase": "TASK",
    "condition": "Cond4",
    "trial_num": 14,
    "trial_length": 5,
    "click_num": 3,
    "RT": 1625,
    "action": 1,
    "reward": -2.8
  },
  {
    "phase": "TASK",
    "condition": "Cond4",
    "trial_num": 14,
    "trial_length": 5,
    "click_num": 4,
    "RT": 1568,
    "action": 1,
    "reward": -2.4
  },
  {
    "phase": "TASK",
    "condition": "Cond4",
    "trial_num": 14,
    "trial_length": 5,
    "click_num": 5,
    "RT": 1649,
    "action": 0,
    "reward": -2.4
  },
  {
    "phase": "TASK",
    "condition": "Cond4",
    "trial_num": 15,
    "trial_length": 9,
    "click_num": 1,
    "RT": 1517,
    "action": 1,
    "reward": -2.8
  },
  {
    "phase": "TASK",
    "condition": "Cond4",
    "trial_num": 15,
    "trial_length": 9,
    "click_num": 2,
    "RT": 1684,
    "action": 1,
    "reward": -3.6
  },
  {
    "phase": "TASK",
    "condition": "Cond4",
    "trial_num": 15,
    "trial_length": 9,
    "click_num": 3,
    "RT": 2157,
    "action": 1,
    "reward": -2.9
  },
  {
    "phase": "TASK",
    "condition": "Cond4",
    "trial_num": 15,
    "trial_length": 9,
    "click_num": 4,
    "RT": 1433,
    "action": 1,
    "reward": -2.9
  },
  {
    "phase": "TASK",
    "condition": "Cond4",
    "trial_num": 15,
    "trial_length": 9,
    "click_num": 5,
    "RT": 1342,
    "action": 0,
    "reward": -2.8
  },
  {
    "phase": "TASK",
    "condition": "Cond4",
    "trial_num": 15,
    "trial_length": 9,
    "click_num": 6,
    "RT": 1143,
    "action": 0,
    "reward": -2.8
  },
  {
    "phase": "TASK",
    "condition": "Cond4",
    "trial_num": 15,
    "trial_length": 9,
    "click_num": 7,
    "RT": 1018,
    "action": 0,
    "reward": -2.8
  },
  {
    "phase": "TASK",
    "condition": "Cond4",
    "trial_num": 15,
    "trial_length": 9,
    "click_num": 8,
    "RT": 975,
    "action": 0,
    "reward": -2.8
  },
  {
    "phase": "TASK",
    "condition": "Cond4",
    "trial_num": 15,
    "trial_length": 9,
    "click_num": 9,
    "RT": 1096,
    "action": 0,
    "reward": -2.8
  },
  {
    "phase": "TASK",
    "condition": "Cond4",
    "trial_num": 16,
    "trial_length": 8,
    "click_num": 1,
    "RT": 1558,
    "action": 1,
    "reward": -3.8
  },
  {
    "phase": "TASK",
    "condition": "Cond4",
    "trial_num": 16,
    "trial_length": 8,
    "click_num": 2,
    "RT": 1432,
    "action": 1,
    "reward": -2.8
  },
  {
    "phase": "TASK",
    "condition": "Cond4",
    "trial_num": 16,
    "trial_length": 8,
    "click_num": 3,
    "RT": 1378,
    "action": 0,
    "reward": -2.8
  },
  {
    "phase": "TASK",
    "condition": "Cond4",
    "trial_num": 16,
    "trial_length": 8,
    "click_num": 4,
    "RT": 1861,
    "action": 1,
    "reward": -4.2
  },
  {
    "phase": "TASK",
    "condition": "Cond4",
    "trial_num": 16,
    "trial_length": 8,
    "click_num": 5,
    "RT": 1346,
    "action": 1,
    "reward": -3.4
  },
  {
    "phase": "TASK",
    "condition": "Cond4",
    "trial_num": 16,
    "trial_length": 8,
    "click_num": 6,
    "RT": 1359,
    "action": 1,
    "reward": -3.7
  },
  {
    "phase": "TASK",
    "condition": "Cond4",
    "trial_num": 16,
    "trial_length": 8,
    "click_num": 7,
    "RT": 1384,
    "action": 0,
    "reward": -2.8
  },
  {
    "phase": "TASK",
    "condition": "Cond4",
    "trial_num": 16,
    "trial_length": 8,
    "click_num": 8,
    "RT": 1022,
    "action": 0,
    "reward": -2.8
  },
  {
    "phase": "TASK",
    "condition": "Cond4",
    "trial_num": 17,
    "trial_length": 5,
    "click_num": 1,
    "RT": 1516,
    "action": 1,
    "reward": -3.2
  },
  {
    "phase": "TASK",
    "condition": "Cond4",
    "trial_num": 17,
    "trial_length": 5,
    "click_num": 2,
    "RT": 1545,
    "action": 1,
    "reward": -3.1
  },
  {
    "phase": "TASK",
    "condition": "Cond4",
    "trial_num": 17,
    "trial_length": 5,
    "click_num": 3,
    "RT": 1119,
    "action": 1,
    "reward": -3.1
  },
  {
    "phase": "TASK",
    "condition": "Cond4",
    "trial_num": 17,
    "trial_length": 5,
    "click_num": 4,
    "RT": 1529,
    "action": 1,
    "reward": -3.3
  },
  {
    "phase": "TASK",
    "condition": "Cond4",
    "trial_num": 17,
    "trial_length": 5,
    "click_num": 5,
    "RT": 1760,
    "action": 0,
    "reward": -3.1
  },
  {
    "phase": "TASK",
    "condition": "Cond4",
    "trial_num": 18,
    "trial_length": 7,
    "click_num": 1,
    "RT": 1383,
    "action": 1,
    "reward": -3.5
  },
  {
    "phase": "TASK",
    "condition": "Cond4",
    "trial_num": 18,
    "trial_length": 7,
    "click_num": 2,
    "RT": 1671,
    "action": 1,
    "reward": -3.1
  },
  {
    "phase": "TASK",
    "condition": "Cond4",
    "trial_num": 18,
    "trial_length": 7,
    "click_num": 3,
    "RT": 1642,
    "action": 1,
    "reward": -3.1
  },
  {
    "phase": "TASK",
    "condition": "Cond4",
    "trial_num": 18,
    "trial_length": 7,
    "click_num": 4,
    "RT": 1310,
    "action": 1,
    "reward": -2.8
  },
  {
    "phase": "TASK",
    "condition": "Cond4",
    "trial_num": 18,
    "trial_length": 7,
    "click_num": 5,
    "RT": 1336,
    "action": 1,
    "reward": -1.7
  },
  {
    "phase": "TASK",
    "condition": "Cond4",
    "trial_num": 18,
    "trial_length": 7,
    "click_num": 6,
    "RT": 1513,
    "action": 0,
    "reward": -1.7
  },
  {
    "phase": "TASK",
    "condition": "Cond4",
    "trial_num": 18,
    "trial_length": 7,
    "click_num": 7,
    "RT": 1018,
    "action": 0,
    "reward": -1.7
  },
  {
    "phase": "TASK",
    "condition": "Cond4",
    "trial_num": 19,
    "trial_length": 10,
    "click_num": 1,
    "RT": 1533,
    "action": 1,
    "reward": -3.2
  },
  {
    "phase": "TASK",
    "condition": "Cond4",
    "trial_num": 19,
    "trial_length": 10,
    "click_num": 2,
    "RT": 1291,
    "action": 1,
    "reward": -2.2
  },
  {
    "phase": "TASK",
    "condition": "Cond4",
    "trial_num": 19,
    "trial_length": 10,
    "click_num": 3,
    "RT": 1677,
    "action": 1,
    "reward": -3.8
  },
  {
    "phase": "TASK",
    "condition": "Cond4",
    "trial_num": 19,
    "trial_length": 10,
    "click_num": 4,
    "RT": 1616,
    "action": 1,
    "reward": -3.7
  },
  {
    "phase": "TASK",
    "condition": "Cond4",
    "trial_num": 19,
    "trial_length": 10,
    "click_num": 5,
    "RT": 1246,
    "action": 0,
    "reward": -2.2
  },
  {
    "phase": "TASK",
    "condition": "Cond4",
    "trial_num": 19,
    "trial_length": 10,
    "click_num": 6,
    "RT": 1634,
    "action": 0,
    "reward": -2.2
  },
  {
    "phase": "TASK",
    "condition": "Cond4",
    "trial_num": 19,
    "trial_length": 10,
    "click_num": 7,
    "RT": 1038,
    "action": 0,
    "reward": -2.2
  },
  {
    "phase": "TASK",
    "condition": "Cond4",
    "trial_num": 19,
    "trial_length": 10,
    "click_num": 8,
    "RT": 962,
    "action": 0,
    "reward": -2.2
  },
  {
    "phase": "TASK",
    "condition": "Cond4",
    "trial_num": 19,
    "trial_length": 10,
    "click_num": 9,
    "RT": 914,
    "action": 0,
    "reward": -2.2
  },
  {
    "phase": "TASK",
    "condition": "Cond4",
    "trial_num": 19,
    "trial_length": 10,
    "click_num": 10,
    "RT": 1271,
    "action": 0,
    "reward": -2.2
  },
  {
    "phase": "TASK",
    "condition": "Cond4",
    "trial_num": 20,
    "trial_length": 10,
    "click_num": 1,
    "RT": 1448,
    "action": 1,
    "reward": -3
  },
  {
    "phase": "TASK",
    "condition": "Cond4",
    "trial_num": 20,
    "trial_length": 10,
    "click_num": 2,
    "RT": 1855,
    "action": 1,
    "reward": -2.7
  },
  {
    "phase": "TASK",
    "condition": "Cond4",
    "trial_num": 20,
    "trial_length": 10,
    "click_num": 3,
    "RT": 1328,
    "action": 1,
    "reward": -4.1
  },
  {
    "phase": "TASK",
    "condition": "Cond4",
    "trial_num": 20,
    "trial_length": 10,
    "click_num": 4,
    "RT": 1610,
    "action": 1,
    "reward": -3
  },
  {
    "phase": "TASK",
    "condition": "Cond4",
    "trial_num": 20,
    "trial_length": 10,
    "click_num": 5,
    "RT": 1324,
    "action": 1,
    "reward": -2.9
  },
  {
    "phase": "TASK",
    "condition": "Cond4",
    "trial_num": 20,
    "trial_length": 10,
    "click_num": 6,
    "RT": 2281,
    "action": 1,
    "reward": -2.8
  },
  {
    "phase": "TASK",
    "condition": "Cond4",
    "trial_num": 20,
    "trial_length": 10,
    "click_num": 7,
    "RT": 1288,
    "action": 0,
    "reward": -2.7
  },
  {
    "phase": "TASK",
    "condition": "Cond4",
    "trial_num": 20,
    "trial_length": 10,
    "click_num": 8,
    "RT": 1279,
    "action": 0,
    "reward": -2.7
  },
  {
    "phase": "TASK",
    "condition": "Cond4",
    "trial_num": 20,
    "trial_length": 10,
    "click_num": 9,
    "RT": 1072,
    "action": 0,
    "reward": -2.7
  },
  {
    "phase": "TASK",
    "condition": "Cond4",
    "trial_num": 20,
    "trial_length": 10,
    "click_num": 10,
    "RT": 1209,
    "action": 0,
    "reward": -2.7
  },
  {
    "phase": "TASK",
    "condition": "Cond4",
    "trial_num": 21,
    "trial_length": 9,
    "click_num": 1,
    "RT": 1277,
    "action": 1,
    "reward": -3.1
  },
  {
    "phase": "TASK",
    "condition": "Cond4",
    "trial_num": 21,
    "trial_length": 9,
    "click_num": 2,
    "RT": 1411,
    "action": 1,
    "reward": -3.2
  },
  {
    "phase": "TASK",
    "condition": "Cond4",
    "trial_num": 21,
    "trial_length": 9,
    "click_num": 3,
    "RT": 1782,
    "action": 1,
    "reward": -3.2
  },
  {
    "phase": "TASK",
    "condition": "Cond4",
    "trial_num": 21,
    "trial_length": 9,
    "click_num": 4,
    "RT": 1311,
    "action": 1,
    "reward": -3.1
  },
  {
    "phase": "TASK",
    "condition": "Cond4",
    "trial_num": 21,
    "trial_length": 9,
    "click_num": 5,
    "RT": 1339,
    "action": 1,
    "reward": -3.5
  },
  {
    "phase": "TASK",
    "condition": "Cond4",
    "trial_num": 21,
    "trial_length": 9,
    "click_num": 6,
    "RT": 1646,
    "action": 1,
    "reward": -2.4
  },
  {
    "phase": "TASK",
    "condition": "Cond4",
    "trial_num": 21,
    "trial_length": 9,
    "click_num": 7,
    "RT": 1550,
    "action": 0,
    "reward": -2.4
  },
  {
    "phase": "TASK",
    "condition": "Cond4",
    "trial_num": 21,
    "trial_length": 9,
    "click_num": 8,
    "RT": 1362,
    "action": 0,
    "reward": -2.4
  },
  {
    "phase": "TASK",
    "condition": "Cond4",
    "trial_num": 21,
    "trial_length": 9,
    "click_num": 9,
    "RT": 1047,
    "action": 0,
    "reward": -2.4
  },
  {
    "phase": "TASK",
    "condition": "Cond4",
    "trial_num": 22,
    "trial_length": 10,
    "click_num": 1,
    "RT": 1350,
    "action": 1,
    "reward": -4.2
  },
  {
    "phase": "TASK",
    "condition": "Cond4",
    "trial_num": 22,
    "trial_length": 10,
    "click_num": 2,
    "RT": 1568,
    "action": 1,
    "reward": -2.2
  },
  {
    "phase": "TASK",
    "condition": "Cond4",
    "trial_num": 22,
    "trial_length": 10,
    "click_num": 3,
    "RT": 2331,
    "action": 0,
    "reward": -2.2
  },
  {
    "phase": "TASK",
    "condition": "Cond4",
    "trial_num": 22,
    "trial_length": 10,
    "click_num": 4,
    "RT": 1021,
    "action": 0,
    "reward": -2.2
  },
  {
    "phase": "TASK",
    "condition": "Cond4",
    "trial_num": 22,
    "trial_length": 10,
    "click_num": 5,
    "RT": 977,
    "action": 0,
    "reward": -2.2
  },
  {
    "phase": "TASK",
    "condition": "Cond4",
    "trial_num": 22,
    "trial_length": 10,
    "click_num": 6,
    "RT": 1066,
    "action": 0,
    "reward": -2.2
  },
  {
    "phase": "TASK",
    "condition": "Cond4",
    "trial_num": 22,
    "trial_length": 10,
    "click_num": 7,
    "RT": 1068,
    "action": 0,
    "reward": -2.2
  },
  {
    "phase": "TASK",
    "condition": "Cond4",
    "trial_num": 22,
    "trial_length": 10,
    "click_num": 8,
    "RT": 1148,
    "action": 0,
    "reward": -2.2
  },
  {
    "phase": "TASK",
    "condition": "Cond4",
    "trial_num": 22,
    "trial_length": 10,
    "click_num": 9,
    "RT": 990,
    "action": 0,
    "reward": -2.2
  },
  {
    "phase": "TASK",
    "condition": "Cond4",
    "trial_num": 22,
    "trial_length": 10,
    "click_num": 10,
    "RT": 1519,
    "action": 0,
    "reward": -2.2
  },
  {
    "phase": "TASK",
    "condition": "Cond4",
    "trial_num": 23,
    "trial_length": 8,
    "click_num": 1,
    "RT": 1742,
    "action": 1,
    "reward": -2.8
  },
  {
    "phase": "TASK",
    "condition": "Cond4",
    "trial_num": 23,
    "trial_length": 8,
    "click_num": 2,
    "RT": 1857,
    "action": 1,
    "reward": -3
  },
  {
    "phase": "TASK",
    "condition": "Cond4",
    "trial_num": 23,
    "trial_length": 8,
    "click_num": 3,
    "RT": 1302,
    "action": 1,
    "reward": -4
  },
  {
    "phase": "TASK",
    "condition": "Cond4",
    "trial_num": 23,
    "trial_length": 8,
    "click_num": 4,
    "RT": 1808,
    "action": 0,
    "reward": -2.8
  },
  {
    "phase": "TASK",
    "condition": "Cond4",
    "trial_num": 23,
    "trial_length": 8,
    "click_num": 5,
    "RT": 1216,
    "action": 0,
    "reward": -2.8
  },
  {
    "phase": "TASK",
    "condition": "Cond4",
    "trial_num": 23,
    "trial_length": 8,
    "click_num": 6,
    "RT": 1027,
    "action": 0,
    "reward": -2.8
  },
  {
    "phase": "TASK",
    "condition": "Cond4",
    "trial_num": 23,
    "trial_length": 8,
    "click_num": 7,
    "RT": 1368,
    "action": 1,
    "reward": -2.8
  },
  {
    "phase": "TASK",
    "condition": "Cond4",
    "trial_num": 23,
    "trial_length": 8,
    "click_num": 8,
    "RT": 1701,
    "action": 1,
    "reward": -3.7
  },
  {
    "phase": "TASK",
    "condition": "Cond4",
    "trial_num": 24,
    "trial_length": 9,
    "click_num": 1,
    "RT": 1542,
    "action": 1,
    "reward": -2.6
  },
  {
    "phase": "TASK",
    "condition": "Cond4",
    "trial_num": 24,
    "trial_length": 9,
    "click_num": 2,
    "RT": 1846,
    "action": 1,
    "reward": -3.9
  },
  {
    "phase": "TASK",
    "condition": "Cond4",
    "trial_num": 24,
    "trial_length": 9,
    "click_num": 3,
    "RT": 1650,
    "action": 0,
    "reward": -2.6
  },
  {
    "phase": "TASK",
    "condition": "Cond4",
    "trial_num": 24,
    "trial_length": 9,
    "click_num": 4,
    "RT": 846,
    "action": 0,
    "reward": -2.6
  },
  {
    "phase": "TASK",
    "condition": "Cond4",
    "trial_num": 24,
    "trial_length": 9,
    "click_num": 5,
    "RT": 993,
    "action": 0,
    "reward": -2.6
  },
  {
    "phase": "TASK",
    "condition": "Cond4",
    "trial_num": 24,
    "trial_length": 9,
    "click_num": 6,
    "RT": 1023,
    "action": 0,
    "reward": -2.6
  },
  {
    "phase": "TASK",
    "condition": "Cond4",
    "trial_num": 24,
    "trial_length": 9,
    "click_num": 7,
    "RT": 1487,
    "action": 0,
    "reward": -2.6
  },
  {
    "phase": "TASK",
    "condition": "Cond4",
    "trial_num": 24,
    "trial_length": 9,
    "click_num": 8,
    "RT": 1251,
    "action": 0,
    "reward": -2.6
  },
  {
    "phase": "TASK",
    "condition": "Cond4",
    "trial_num": 24,
    "trial_length": 9,
    "click_num": 9,
    "RT": 913,
    "action": 0,
    "reward": -2.6
  },
  {
    "phase": "TASK",
    "condition": "Cond4",
    "trial_num": 25,
    "trial_length": 8,
    "click_num": 1,
    "RT": 5689,
    "action": 1,
    "reward": -2.4
  },
  {
    "phase": "TASK",
    "condition": "Cond4",
    "trial_num": 25,
    "trial_length": 8,
    "click_num": 2,
    "RT": 3358,
    "action": 0,
    "reward": -2.4
  },
  {
    "phase": "TASK",
    "condition": "Cond4",
    "trial_num": 25,
    "trial_length": 8,
    "click_num": 3,
    "RT": 1278,
    "action": 0,
    "reward": -2.4
  },
  {
    "phase": "TASK",
    "condition": "Cond4",
    "trial_num": 25,
    "trial_length": 8,
    "click_num": 4,
    "RT": 977,
    "action": 0,
    "reward": -2.4
  },
  {
    "phase": "TASK",
    "condition": "Cond4",
    "trial_num": 25,
    "trial_length": 8,
    "click_num": 5,
    "RT": 1087,
    "action": 0,
    "reward": -2.4
  },
  {
    "phase": "TASK",
    "condition": "Cond4",
    "trial_num": 25,
    "trial_length": 8,
    "click_num": 6,
    "RT": 1297,
    "action": 0,
    "reward": -2.4
  },
  {
    "phase": "TASK",
    "condition": "Cond4",
    "trial_num": 25,
    "trial_length": 8,
    "click_num": 7,
    "RT": 1352,
    "action": 0,
    "reward": -2.4
  },
  {
    "phase": "TASK",
    "condition": "Cond4",
    "trial_num": 25,
    "trial_length": 8,
    "click_num": 8,
    "RT": 879,
    "action": 0,
    "reward": -2.4
  },
  {
    "phase": "TASK",
    "condition": "Cond4",
    "trial_num": 26,
    "trial_length": 8,
    "click_num": 1,
    "RT": 1549,
    "action": 1,
    "reward": -3
  },
  {
    "phase": "TASK",
    "condition": "Cond4",
    "trial_num": 26,
    "trial_length": 8,
    "click_num": 2,
    "RT": 1528,
    "action": 1,
    "reward": -3.7
  },
  {
    "phase": "TASK",
    "condition": "Cond4",
    "trial_num": 26,
    "trial_length": 8,
    "click_num": 3,
    "RT": 1303,
    "action": 1,
    "reward": -3.8
  },
  {
    "phase": "TASK",
    "condition": "Cond4",
    "trial_num": 26,
    "trial_length": 8,
    "click_num": 4,
    "RT": 1251,
    "action": 1,
    "reward": -2.4
  },
  {
    "phase": "TASK",
    "condition": "Cond4",
    "trial_num": 26,
    "trial_length": 8,
    "click_num": 5,
    "RT": 1469,
    "action": 0,
    "reward": -2.4
  },
  {
    "phase": "TASK",
    "condition": "Cond4",
    "trial_num": 26,
    "trial_length": 8,
    "click_num": 6,
    "RT": 1071,
    "action": 0,
    "reward": -2.4
  },
  {
    "phase": "TASK",
    "condition": "Cond4",
    "trial_num": 26,
    "trial_length": 8,
    "click_num": 7,
    "RT": 809,
    "action": 0,
    "reward": -2.4
  },
  {
    "phase": "TASK",
    "condition": "Cond4",
    "trial_num": 26,
    "trial_length": 8,
    "click_num": 8,
    "RT": 1096,
    "action": 0,
    "reward": -2.4
  },
  {
    "phase": "TASK",
    "condition": "Cond4",
    "trial_num": 27,
    "trial_length": 7,
    "click_num": 1,
    "RT": 2472,
    "action": 1,
    "reward": -2.5
  },
  {
    "phase": "TASK",
    "condition": "Cond4",
    "trial_num": 27,
    "trial_length": 7,
    "click_num": 2,
    "RT": 2017,
    "action": 0,
    "reward": -2.5
  },
  {
    "phase": "TASK",
    "condition": "Cond4",
    "trial_num": 27,
    "trial_length": 7,
    "click_num": 3,
    "RT": 1118,
    "action": 0,
    "reward": -2.5
  },
  {
    "phase": "TASK",
    "condition": "Cond4",
    "trial_num": 27,
    "trial_length": 7,
    "click_num": 4,
    "RT": 912,
    "action": 0,
    "reward": -2.5
  },
  {
    "phase": "TASK",
    "condition": "Cond4",
    "trial_num": 27,
    "trial_length": 7,
    "click_num": 5,
    "RT": 960,
    "action": 0,
    "reward": -2.5
  },
  {
    "phase": "TASK",
    "condition": "Cond4",
    "trial_num": 27,
    "trial_length": 7,
    "click_num": 6,
    "RT": 922,
    "action": 0,
    "reward": -2.5
  },
  {
    "phase": "TASK",
    "condition": "Cond4",
    "trial_num": 27,
    "trial_length": 7,
    "click_num": 7,
    "RT": 862,
    "action": 0,
    "reward": -2.5
  },
  {
    "phase": "TASK",
    "condition": "Cond4",
    "trial_num": 28,
    "trial_length": 9,
    "click_num": 1,
    "RT": 1614,
    "action": 1,
    "reward": -3.3
  },
  {
    "phase": "TASK",
    "condition": "Cond4",
    "trial_num": 28,
    "trial_length": 9,
    "click_num": 2,
    "RT": 1583,
    "action": 1,
    "reward": -3.2
  },
  {
    "phase": "TASK",
    "condition": "Cond4",
    "trial_num": 28,
    "trial_length": 9,
    "click_num": 3,
    "RT": 1384,
    "action": 1,
    "reward": -3.1
  },
  {
    "phase": "TASK",
    "condition": "Cond4",
    "trial_num": 28,
    "trial_length": 9,
    "click_num": 4,
    "RT": 1232,
    "action": 1,
    "reward": -3.2
  },
  {
    "phase": "TASK",
    "condition": "Cond4",
    "trial_num": 28,
    "trial_length": 9,
    "click_num": 5,
    "RT": 1200,
    "action": 1,
    "reward": -3.6
  },
  {
    "phase": "TASK",
    "condition": "Cond4",
    "trial_num": 28,
    "trial_length": 9,
    "click_num": 6,
    "RT": 1145,
    "action": 1,
    "reward": -3.3
  },
  {
    "phase": "TASK",
    "condition": "Cond4",
    "trial_num": 28,
    "trial_length": 9,
    "click_num": 7,
    "RT": 1250,
    "action": 1,
    "reward": -2.7
  },
  {
    "phase": "TASK",
    "condition": "Cond4",
    "trial_num": 28,
    "trial_length": 9,
    "click_num": 8,
    "RT": 1973,
    "action": 1,
    "reward": -2.1
  },
  {
    "phase": "TASK",
    "condition": "Cond4",
    "trial_num": 28,
    "trial_length": 9,
    "click_num": 9,
    "RT": 1233,
    "action": 0,
    "reward": -2.1
  },
  {
    "phase": "TASK",
    "condition": "Cond4",
    "trial_num": 29,
    "trial_length": 7,
    "click_num": 1,
    "RT": 4174,
    "action": 1,
    "reward": -3.2
  },
  {
    "phase": "TASK",
    "condition": "Cond4",
    "trial_num": 29,
    "trial_length": 7,
    "click_num": 2,
    "RT": 10923,
    "action": 1,
    "reward": -3.1
  },
  {
    "phase": "TASK",
    "condition": "Cond4",
    "trial_num": 29,
    "trial_length": 7,
    "click_num": 3,
    "RT": 1485,
    "action": 1,
    "reward": -2.6
  },
  {
    "phase": "TASK",
    "condition": "Cond4",
    "trial_num": 29,
    "trial_length": 7,
    "click_num": 4,
    "RT": 1675,
    "action": 1,
    "reward": -3
  },
  {
    "phase": "TASK",
    "condition": "Cond4",
    "trial_num": 29,
    "trial_length": 7,
    "click_num": 5,
    "RT": 1404,
    "action": 0,
    "reward": -2.6
  },
  {
    "phase": "TASK",
    "condition": "Cond4",
    "trial_num": 29,
    "trial_length": 7,
    "click_num": 6,
    "RT": 865,
    "action": 0,
    "reward": -2.6
  },
  {
    "phase": "TASK",
    "condition": "Cond4",
    "trial_num": 29,
    "trial_length": 7,
    "click_num": 7,
    "RT": 776,
    "action": 0,
    "reward": -2.6
  },
  {
    "phase": "TASK",
    "condition": "Cond4",
    "trial_num": 30,
    "trial_length": 6,
    "click_num": 1,
    "RT": 1317,
    "action": 1,
    "reward": -4.1
  },
  {
    "phase": "TASK",
    "condition": "Cond4",
    "trial_num": 30,
    "trial_length": 6,
    "click_num": 2,
    "RT": 1593,
    "action": 1,
    "reward": -2.7
  },
  {
    "phase": "TASK",
    "condition": "Cond4",
    "trial_num": 30,
    "trial_length": 6,
    "click_num": 3,
    "RT": 1416,
    "action": 0,
    "reward": -2.7
  },
  {
    "phase": "TASK",
    "condition": "Cond4",
    "trial_num": 30,
    "trial_length": 6,
    "click_num": 4,
    "RT": 864,
    "action": 0,
    "reward": -2.7
  },
  {
    "phase": "TASK",
    "condition": "Cond4",
    "trial_num": 30,
    "trial_length": 6,
    "click_num": 5,
    "RT": 944,
    "action": 0,
    "reward": -2.7
  },
  {
    "phase": "TASK",
    "condition": "Cond4",
    "trial_num": 30,
    "trial_length": 6,
    "click_num": 6,
    "RT": 896,
    "action": 0,
    "reward": -2.7
  },
  {
    "phase": "TASK",
    "condition": "Cond4",
    "trial_num": 31,
    "trial_length": 7,
    "click_num": 1,
    "RT": 3032,
    "action": 1,
    "reward": -2.5
  },
  {
    "phase": "TASK",
    "condition": "Cond4",
    "trial_num": 31,
    "trial_length": 7,
    "click_num": 2,
    "RT": 1687,
    "action": 0,
    "reward": -2.5
  },
  {
    "phase": "TASK",
    "condition": "Cond4",
    "trial_num": 31,
    "trial_length": 7,
    "click_num": 3,
    "RT": 736,
    "action": 0,
    "reward": -2.5
  },
  {
    "phase": "TASK",
    "condition": "Cond4",
    "trial_num": 31,
    "trial_length": 7,
    "click_num": 4,
    "RT": 737,
    "action": 0,
    "reward": -2.5
  },
  {
    "phase": "TASK",
    "condition": "Cond4",
    "trial_num": 31,
    "trial_length": 7,
    "click_num": 5,
    "RT": 711,
    "action": 0,
    "reward": -2.5
  },
  {
    "phase": "TASK",
    "condition": "Cond4",
    "trial_num": 31,
    "trial_length": 7,
    "click_num": 6,
    "RT": 728,
    "action": 0,
    "reward": -2.5
  },
  {
    "phase": "TASK",
    "condition": "Cond4",
    "trial_num": 31,
    "trial_length": 7,
    "click_num": 7,
    "RT": 753,
    "action": 0,
    "reward": -2.5
  },
  {
    "phase": "TASK",
    "condition": "Cond4",
    "trial_num": 32,
    "trial_length": 6,
    "click_num": 1,
    "RT": 1567,
    "action": 1,
    "reward": -2.9
  },
  {
    "phase": "TASK",
    "condition": "Cond4",
    "trial_num": 32,
    "trial_length": 6,
    "click_num": 2,
    "RT": 1640,
    "action": 1,
    "reward": -3.2
  },
  {
    "phase": "TASK",
    "condition": "Cond4",
    "trial_num": 32,
    "trial_length": 6,
    "click_num": 3,
    "RT": 1256,
    "action": 1,
    "reward": -3.3
  },
  {
    "phase": "TASK",
    "condition": "Cond4",
    "trial_num": 32,
    "trial_length": 6,
    "click_num": 4,
    "RT": 1728,
    "action": 1,
    "reward": -2.6
  },
  {
    "phase": "TASK",
    "condition": "Cond4",
    "trial_num": 32,
    "trial_length": 6,
    "click_num": 5,
    "RT": 1819,
    "action": 0,
    "reward": -2.6
  },
  {
    "phase": "TASK",
    "condition": "Cond4",
    "trial_num": 32,
    "trial_length": 6,
    "click_num": 6,
    "RT": 1150,
    "action": 0,
    "reward": -2.6
  },
  {
    "phase": "TASK",
    "condition": "Cond4",
    "trial_num": 33,
    "trial_length": 10,
    "click_num": 1,
    "RT": 1556,
    "action": 1,
    "reward": -3.2
  },
  {
    "phase": "TASK",
    "condition": "Cond4",
    "trial_num": 33,
    "trial_length": 10,
    "click_num": 2,
    "RT": 1417,
    "action": 1,
    "reward": -3.6
  },
  {
    "phase": "TASK",
    "condition": "Cond4",
    "trial_num": 33,
    "trial_length": 10,
    "click_num": 3,
    "RT": 1312,
    "action": 1,
    "reward": -2.1
  },
  {
    "phase": "TASK",
    "condition": "Cond4",
    "trial_num": 33,
    "trial_length": 10,
    "click_num": 4,
    "RT": 1439,
    "action": 0,
    "reward": -2.1
  },
  {
    "phase": "TASK",
    "condition": "Cond4",
    "trial_num": 33,
    "trial_length": 10,
    "click_num": 5,
    "RT": 856,
    "action": 0,
    "reward": -2.1
  },
  {
    "phase": "TASK",
    "condition": "Cond4",
    "trial_num": 33,
    "trial_length": 10,
    "click_num": 6,
    "RT": 888,
    "action": 0,
    "reward": -2.1
  },
  {
    "phase": "TASK",
    "condition": "Cond4",
    "trial_num": 33,
    "trial_length": 10,
    "click_num": 7,
    "RT": 830,
    "action": 0,
    "reward": -2.1
  },
  {
    "phase": "TASK",
    "condition": "Cond4",
    "trial_num": 33,
    "trial_length": 10,
    "click_num": 8,
    "RT": 1170,
    "action": 0,
    "reward": -2.1
  },
  {
    "phase": "TASK",
    "condition": "Cond4",
    "trial_num": 33,
    "trial_length": 10,
    "click_num": 9,
    "RT": 816,
    "action": 0,
    "reward": -2.1
  },
  {
    "phase": "TASK",
    "condition": "Cond4",
    "trial_num": 33,
    "trial_length": 10,
    "click_num": 10,
    "RT": 967,
    "action": 0,
    "reward": -2.1
  },
  {
    "phase": "TASK",
    "condition": "Cond4",
    "trial_num": 34,
    "trial_length": 6,
    "click_num": 1,
    "RT": 1531,
    "action": 1,
    "reward": -3.2
  },
  {
    "phase": "TASK",
    "condition": "Cond4",
    "trial_num": 34,
    "trial_length": 6,
    "click_num": 2,
    "RT": 1766,
    "action": 1,
    "reward": -3.6
  },
  {
    "phase": "TASK",
    "condition": "Cond4",
    "trial_num": 34,
    "trial_length": 6,
    "click_num": 3,
    "RT": 1190,
    "action": 1,
    "reward": -3.3
  },
  {
    "phase": "TASK",
    "condition": "Cond4",
    "trial_num": 34,
    "trial_length": 6,
    "click_num": 4,
    "RT": 1264,
    "action": 1,
    "reward": -2.6
  },
  {
    "phase": "TASK",
    "condition": "Cond4",
    "trial_num": 34,
    "trial_length": 6,
    "click_num": 5,
    "RT": 1370,
    "action": 0,
    "reward": -2.6
  },
  {
    "phase": "TASK",
    "condition": "Cond4",
    "trial_num": 34,
    "trial_length": 6,
    "click_num": 6,
    "RT": 1646,
    "action": 0,
    "reward": -2.6
  },
  {
    "phase": "TASK",
    "condition": "Cond4",
    "trial_num": 35,
    "trial_length": 10,
    "click_num": 1,
    "RT": 1668,
    "action": 1,
    "reward": -1.8
  },
  {
    "phase": "TASK",
    "condition": "Cond4",
    "trial_num": 35,
    "trial_length": 10,
    "click_num": 2,
    "RT": 1512,
    "action": 0,
    "reward": -1.8
  },
  {
    "phase": "TASK",
    "condition": "Cond4",
    "trial_num": 35,
    "trial_length": 10,
    "click_num": 3,
    "RT": 976,
    "action": 0,
    "reward": -1.8
  },
  {
    "phase": "TASK",
    "condition": "Cond4",
    "trial_num": 35,
    "trial_length": 10,
    "click_num": 4,
    "RT": 960,
    "action": 0,
    "reward": -1.8
  },
  {
    "phase": "TASK",
    "condition": "Cond4",
    "trial_num": 35,
    "trial_length": 10,
    "click_num": 5,
    "RT": 1223,
    "action": 0,
    "reward": -1.8
  },
  {
    "phase": "TASK",
    "condition": "Cond4",
    "trial_num": 35,
    "trial_length": 10,
    "click_num": 6,
    "RT": 970,
    "action": 0,
    "reward": -1.8
  },
  {
    "phase": "TASK",
    "condition": "Cond4",
    "trial_num": 35,
    "trial_length": 10,
    "click_num": 7,
    "RT": 1551,
    "action": 0,
    "reward": -1.8
  },
  {
    "phase": "TASK",
    "condition": "Cond4",
    "trial_num": 35,
    "trial_length": 10,
    "click_num": 8,
    "RT": 1064,
    "action": 0,
    "reward": -1.8
  },
  {
    "phase": "TASK",
    "condition": "Cond4",
    "trial_num": 35,
    "trial_length": 10,
    "click_num": 9,
    "RT": 991,
    "action": 0,
    "reward": -1.8
  },
  {
    "phase": "TASK",
    "condition": "Cond4",
    "trial_num": 35,
    "trial_length": 10,
    "click_num": 10,
    "RT": 1128,
    "action": 0,
    "reward": -1.8
  },
  {
    "phase": "TASK",
    "condition": "Cond4",
    "trial_num": 36,
    "trial_length": 7,
    "click_num": 1,
    "RT": 1735,
    "action": 1,
    "reward": -2
  },
  {
    "phase": "TASK",
    "condition": "Cond4",
    "trial_num": 36,
    "trial_length": 7,
    "click_num": 2,
    "RT": 2095,
    "action": 0,
    "reward": -2
  },
  {
    "phase": "TASK",
    "condition": "Cond4",
    "trial_num": 36,
    "trial_length": 7,
    "click_num": 3,
    "RT": 865,
    "action": 0,
    "reward": -2
  },
  {
    "phase": "TASK",
    "condition": "Cond4",
    "trial_num": 36,
    "trial_length": 7,
    "click_num": 4,
    "RT": 981,
    "action": 0,
    "reward": -2
  },
  {
    "phase": "TASK",
    "condition": "Cond4",
    "trial_num": 36,
    "trial_length": 7,
    "click_num": 5,
    "RT": 1307,
    "action": 0,
    "reward": -2
  },
  {
    "phase": "TASK",
    "condition": "Cond4",
    "trial_num": 36,
    "trial_length": 7,
    "click_num": 6,
    "RT": 2314,
    "action": 0,
    "reward": -2
  },
  {
    "phase": "TASK",
    "condition": "Cond4",
    "trial_num": 36,
    "trial_length": 7,
    "click_num": 7,
    "RT": 4432,
    "action": 0,
    "reward": -2
  },
  {
    "phase": "TASK",
    "condition": "Cond4",
    "trial_num": 37,
    "trial_length": 9,
    "click_num": 1,
    "RT": 1161,
    "action": 1,
    "reward": -3.9
  },
  {
    "phase": "TASK",
    "condition": "Cond4",
    "trial_num": 37,
    "trial_length": 9,
    "click_num": 2,
    "RT": 1348,
    "action": 1,
    "reward": -2.7
  },
  {
    "phase": "TASK",
    "condition": "Cond4",
    "trial_num": 37,
    "trial_length": 9,
    "click_num": 3,
    "RT": 1448,
    "action": 1,
    "reward": -2.1
  },
  {
    "phase": "TASK",
    "condition": "Cond4",
    "trial_num": 37,
    "trial_length": 9,
    "click_num": 4,
    "RT": 1504,
    "action": 1,
    "reward": -3.1
  },
  {
    "phase": "TASK",
    "condition": "Cond4",
    "trial_num": 37,
    "trial_length": 9,
    "click_num": 5,
    "RT": 1561,
    "action": 0,
    "reward": -2.1
  },
  {
    "phase": "TASK",
    "condition": "Cond4",
    "trial_num": 37,
    "trial_length": 9,
    "click_num": 6,
    "RT": 1007,
    "action": 0,
    "reward": -2.1
  },
  {
    "phase": "TASK",
    "condition": "Cond4",
    "trial_num": 37,
    "trial_length": 9,
    "click_num": 7,
    "RT": 1487,
    "action": 0,
    "reward": -2.1
  },
  {
    "phase": "TASK",
    "condition": "Cond4",
    "trial_num": 37,
    "trial_length": 9,
    "click_num": 8,
    "RT": 1000,
    "action": 0,
    "reward": -2.1
  },
  {
    "phase": "TASK",
    "condition": "Cond4",
    "trial_num": 37,
    "trial_length": 9,
    "click_num": 9,
    "RT": 1072,
    "action": 0,
    "reward": -2.1
  },
  {
    "phase": "TASK",
    "condition": "Cond4",
    "trial_num": 38,
    "trial_length": 8,
    "click_num": 1,
    "RT": 1665,
    "action": 1,
    "reward": -3.5
  },
  {
    "phase": "TASK",
    "condition": "Cond4",
    "trial_num": 38,
    "trial_length": 8,
    "click_num": 2,
    "RT": 1423,
    "action": 1,
    "reward": -2.7
  },
  {
    "phase": "TASK",
    "condition": "Cond4",
    "trial_num": 38,
    "trial_length": 8,
    "click_num": 3,
    "RT": 1280,
    "action": 1,
    "reward": -3.2
  },
  {
    "phase": "TASK",
    "condition": "Cond4",
    "trial_num": 38,
    "trial_length": 8,
    "click_num": 4,
    "RT": 1272,
    "action": 1,
    "reward": -2.5
  },
  {
    "phase": "TASK",
    "condition": "Cond4",
    "trial_num": 38,
    "trial_length": 8,
    "click_num": 5,
    "RT": 1369,
    "action": 1,
    "reward": -3.7
  },
  {
    "phase": "TASK",
    "condition": "Cond4",
    "trial_num": 38,
    "trial_length": 8,
    "click_num": 6,
    "RT": 1296,
    "action": 0,
    "reward": -2.5
  },
  {
    "phase": "TASK",
    "condition": "Cond4",
    "trial_num": 38,
    "trial_length": 8,
    "click_num": 7,
    "RT": 911,
    "action": 0,
    "reward": -2.5
  },
  {
    "phase": "TASK",
    "condition": "Cond4",
    "trial_num": 38,
    "trial_length": 8,
    "click_num": 8,
    "RT": 1223,
    "action": 0,
    "reward": -2.5
  },
  {
    "phase": "TASK",
    "condition": "Cond4",
    "trial_num": 39,
    "trial_length": 5,
    "click_num": 1,
    "RT": 1672,
    "action": 1,
    "reward": -3
  },
  {
    "phase": "TASK",
    "condition": "Cond4",
    "trial_num": 39,
    "trial_length": 5,
    "click_num": 2,
    "RT": 1489,
    "action": 1,
    "reward": -2.6
  },
  {
    "phase": "TASK",
    "condition": "Cond4",
    "trial_num": 39,
    "trial_length": 5,
    "click_num": 3,
    "RT": 1407,
    "action": 0,
    "reward": -2.6
  },
  {
    "phase": "TASK",
    "condition": "Cond4",
    "trial_num": 39,
    "trial_length": 5,
    "click_num": 4,
    "RT": 1879,
    "action": 0,
    "reward": -2.6
  },
  {
    "phase": "TASK",
    "condition": "Cond4",
    "trial_num": 39,
    "trial_length": 5,
    "click_num": 5,
    "RT": 1105,
    "action": 0,
    "reward": -2.6
  },
  {
    "phase": "TASK",
    "condition": "Cond4",
    "trial_num": 40,
    "trial_length": 5,
    "click_num": 1,
    "RT": 2704,
    "action": 1,
    "reward": -1.8
  },
  {
    "phase": "TASK",
    "condition": "Cond4",
    "trial_num": 40,
    "trial_length": 5,
    "click_num": 2,
    "RT": 1680,
    "action": 0,
    "reward": -1.8
  },
  {
    "phase": "TASK",
    "condition": "Cond4",
    "trial_num": 40,
    "trial_length": 5,
    "click_num": 3,
    "RT": 798,
    "action": 0,
    "reward": -1.8
  },
  {
    "phase": "TASK",
    "condition": "Cond4",
    "trial_num": 40,
    "trial_length": 5,
    "click_num": 4,
    "RT": 832,
    "action": 0,
    "reward": -1.8
  },
  {
    "phase": "TASK",
    "condition": "Cond4",
    "trial_num": 40,
    "trial_length": 5,
    "click_num": 5,
    "RT": 904,
    "action": 0,
    "reward": -1.8
  },
  {
    "phase": "TASK",
    "condition": "Cond4",
    "trial_num": 41,
    "trial_length": 10,
    "click_num": 1,
    "RT": 1449,
    "action": 1,
    "reward": -3.4
  },
  {
    "phase": "TASK",
    "condition": "Cond4",
    "trial_num": 41,
    "trial_length": 10,
    "click_num": 2,
    "RT": 1575,
    "action": 1,
    "reward": -2.1
  },
  {
    "phase": "TASK",
    "condition": "Cond4",
    "trial_num": 41,
    "trial_length": 10,
    "click_num": 3,
    "RT": 1303,
    "action": 1,
    "reward": -2.5
  },
  {
    "phase": "TASK",
    "condition": "Cond4",
    "trial_num": 41,
    "trial_length": 10,
    "click_num": 4,
    "RT": 1410,
    "action": 0,
    "reward": -2.1
  },
  {
    "phase": "TASK",
    "condition": "Cond4",
    "trial_num": 41,
    "trial_length": 10,
    "click_num": 5,
    "RT": 1023,
    "action": 0,
    "reward": -2.1
  },
  {
    "phase": "TASK",
    "condition": "Cond4",
    "trial_num": 41,
    "trial_length": 10,
    "click_num": 6,
    "RT": 895,
    "action": 0,
    "reward": -2.1
  },
  {
    "phase": "TASK",
    "condition": "Cond4",
    "trial_num": 41,
    "trial_length": 10,
    "click_num": 7,
    "RT": 840,
    "action": 0,
    "reward": -2.1
  },
  {
    "phase": "TASK",
    "condition": "Cond4",
    "trial_num": 41,
    "trial_length": 10,
    "click_num": 8,
    "RT": 936,
    "action": 0,
    "reward": -2.1
  },
  {
    "phase": "TASK",
    "condition": "Cond4",
    "trial_num": 41,
    "trial_length": 10,
    "click_num": 9,
    "RT": 912,
    "action": 1,
    "reward": -2.4
  },
  {
    "phase": "TASK",
    "condition": "Cond4",
    "trial_num": 41,
    "trial_length": 10,
    "click_num": 10,
    "RT": 1192,
    "action": 0,
    "reward": -2.1
  },
  {
    "phase": "TASK",
    "condition": "Cond4",
    "trial_num": 42,
    "trial_length": 8,
    "click_num": 1,
    "RT": 1398,
    "action": 1,
    "reward": -2.7
  },
  {
    "phase": "TASK",
    "condition": "Cond4",
    "trial_num": 42,
    "trial_length": 8,
    "click_num": 2,
    "RT": 1488,
    "action": 1,
    "reward": -2.8
  },
  {
    "phase": "TASK",
    "condition": "Cond4",
    "trial_num": 42,
    "trial_length": 8,
    "click_num": 3,
    "RT": 1433,
    "action": 1,
    "reward": -3.6
  },
  {
    "phase": "TASK",
    "condition": "Cond4",
    "trial_num": 42,
    "trial_length": 8,
    "click_num": 4,
    "RT": 1224,
    "action": 1,
    "reward": -2
  },
  {
    "phase": "TASK",
    "condition": "Cond4",
    "trial_num": 42,
    "trial_length": 8,
    "click_num": 5,
    "RT": 1879,
    "action": 0,
    "reward": -2
  },
  {
    "phase": "TASK",
    "condition": "Cond4",
    "trial_num": 42,
    "trial_length": 8,
    "click_num": 6,
    "RT": 849,
    "action": 0,
    "reward": -2
  },
  {
    "phase": "TASK",
    "condition": "Cond4",
    "trial_num": 42,
    "trial_length": 8,
    "click_num": 7,
    "RT": 919,
    "action": 0,
    "reward": -2
  },
  {
    "phase": "TASK",
    "condition": "Cond4",
    "trial_num": 42,
    "trial_length": 8,
    "click_num": 8,
    "RT": 1224,
    "action": 0,
    "reward": -2
  },
  {
    "phase": "TASK",
    "condition": "Cond4",
    "trial_num": 43,
    "trial_length": 10,
    "click_num": 1,
    "RT": 1230,
    "action": 1,
    "reward": -1.7
  },
  {
    "phase": "TASK",
    "condition": "Cond4",
    "trial_num": 43,
    "trial_length": 10,
    "click_num": 2,
    "RT": 1377,
    "action": 1,
    "reward": -2.4
  },
  {
    "phase": "TASK",
    "condition": "Cond4",
    "trial_num": 43,
    "trial_length": 10,
    "click_num": 3,
    "RT": 1111,
    "action": 0,
    "reward": -1.7
  },
  {
    "phase": "TASK",
    "condition": "Cond4",
    "trial_num": 43,
    "trial_length": 10,
    "click_num": 4,
    "RT": 865,
    "action": 0,
    "reward": -1.7
  },
  {
    "phase": "TASK",
    "condition": "Cond4",
    "trial_num": 43,
    "trial_length": 10,
    "click_num": 5,
    "RT": 959,
    "action": 0,
    "reward": -1.7
  },
  {
    "phase": "TASK",
    "condition": "Cond4",
    "trial_num": 43,
    "trial_length": 10,
    "click_num": 6,
    "RT": 936,
    "action": 0,
    "reward": -1.7
  },
  {
    "phase": "TASK",
    "condition": "Cond4",
    "trial_num": 43,
    "trial_length": 10,
    "click_num": 7,
    "RT": 1022,
    "action": 0,
    "reward": -1.7
  },
  {
    "phase": "TASK",
    "condition": "Cond4",
    "trial_num": 43,
    "trial_length": 10,
    "click_num": 8,
    "RT": 930,
    "action": 0,
    "reward": -1.7
  },
  {
    "phase": "TASK",
    "condition": "Cond4",
    "trial_num": 43,
    "trial_length": 10,
    "click_num": 9,
    "RT": 1263,
    "action": 0,
    "reward": -1.7
  },
  {
    "phase": "TASK",
    "condition": "Cond4",
    "trial_num": 43,
    "trial_length": 10,
    "click_num": 10,
    "RT": 1060,
    "action": 0,
    "reward": -1.7
  },
  {
    "phase": "TASK",
    "condition": "Cond4",
    "trial_num": 44,
    "trial_length": 8,
    "click_num": 1,
    "RT": 3188,
    "action": 1,
    "reward": -3.2
  },
  {
    "phase": "TASK",
    "condition": "Cond4",
    "trial_num": 44,
    "trial_length": 8,
    "click_num": 2,
    "RT": 1674,
    "action": 1,
    "reward": -2
  },
  {
    "phase": "TASK",
    "condition": "Cond4",
    "trial_num": 44,
    "trial_length": 8,
    "click_num": 3,
    "RT": 1417,
    "action": 0,
    "reward": -2
  },
  {
    "phase": "TASK",
    "condition": "Cond4",
    "trial_num": 44,
    "trial_length": 8,
    "click_num": 4,
    "RT": 919,
    "action": 0,
    "reward": -2
  },
  {
    "phase": "TASK",
    "condition": "Cond4",
    "trial_num": 44,
    "trial_length": 8,
    "click_num": 5,
    "RT": 1151,
    "action": 0,
    "reward": -2
  },
  {
    "phase": "TASK",
    "condition": "Cond4",
    "trial_num": 44,
    "trial_length": 8,
    "click_num": 6,
    "RT": 1184,
    "action": 0,
    "reward": -2
  },
  {
    "phase": "TASK",
    "condition": "Cond4",
    "trial_num": 44,
    "trial_length": 8,
    "click_num": 7,
    "RT": 906,
    "action": 0,
    "reward": -2
  },
  {
    "phase": "TASK",
    "condition": "Cond4",
    "trial_num": 44,
    "trial_length": 8,
    "click_num": 8,
    "RT": 1071,
    "action": 0,
    "reward": -2
  },
  {
    "phase": "TASK",
    "condition": "Cond4",
    "trial_num": 45,
    "trial_length": 9,
    "click_num": 1,
    "RT": 1438,
    "action": 1,
    "reward": -2.4
  },
  {
    "phase": "TASK",
    "condition": "Cond4",
    "trial_num": 45,
    "trial_length": 9,
    "click_num": 2,
    "RT": 1344,
    "action": 1,
    "reward": -4.5
  },
  {
    "phase": "TASK",
    "condition": "Cond4",
    "trial_num": 45,
    "trial_length": 9,
    "click_num": 3,
    "RT": 1275,
    "action": 1,
    "reward": -2.6
  },
  {
    "phase": "TASK",
    "condition": "Cond4",
    "trial_num": 45,
    "trial_length": 9,
    "click_num": 4,
    "RT": 1301,
    "action": 1,
    "reward": -3.2
  },
  {
    "phase": "TASK",
    "condition": "Cond4",
    "trial_num": 45,
    "trial_length": 9,
    "click_num": 5,
    "RT": 1264,
    "action": 1,
    "reward": -3.5
  },
  {
    "phase": "TASK",
    "condition": "Cond4",
    "trial_num": 45,
    "trial_length": 9,
    "click_num": 6,
    "RT": 1307,
    "action": 1,
    "reward": -3
  },
  {
    "phase": "TASK",
    "condition": "Cond4",
    "trial_num": 45,
    "trial_length": 9,
    "click_num": 7,
    "RT": 1550,
    "action": 0,
    "reward": -2.4
  },
  {
    "phase": "TASK",
    "condition": "Cond4",
    "trial_num": 45,
    "trial_length": 9,
    "click_num": 8,
    "RT": 1272,
    "action": 0,
    "reward": -2.4
  },
  {
    "phase": "TASK",
    "condition": "Cond4",
    "trial_num": 45,
    "trial_length": 9,
    "click_num": 9,
    "RT": 1250,
    "action": 0,
    "reward": -2.4
  },
  {
    "phase": "TASK",
    "condition": "Cond4",
    "trial_num": 46,
    "trial_length": 8,
    "click_num": 1,
    "RT": 1505,
    "action": 1,
    "reward": -2.4
  },
  {
    "phase": "TASK",
    "condition": "Cond4",
    "trial_num": 46,
    "trial_length": 8,
    "click_num": 2,
    "RT": 1551,
    "action": 1,
    "reward": -2.9
  },
  {
    "phase": "TASK",
    "condition": "Cond4",
    "trial_num": 46,
    "trial_length": 8,
    "click_num": 3,
    "RT": 1529,
    "action": 1,
    "reward": -4.1
  },
  {
    "phase": "TASK",
    "condition": "Cond4",
    "trial_num": 46,
    "trial_length": 8,
    "click_num": 4,
    "RT": 1262,
    "action": 0,
    "reward": -2.4
  },
  {
    "phase": "TASK",
    "condition": "Cond4",
    "trial_num": 46,
    "trial_length": 8,
    "click_num": 5,
    "RT": 891,
    "action": 0,
    "reward": -2.4
  },
  {
    "phase": "TASK",
    "condition": "Cond4",
    "trial_num": 46,
    "trial_length": 8,
    "click_num": 6,
    "RT": 893,
    "action": 0,
    "reward": -2.4
  },
  {
    "phase": "TASK",
    "condition": "Cond4",
    "trial_num": 46,
    "trial_length": 8,
    "click_num": 7,
    "RT": 944,
    "action": 0,
    "reward": -2.4
  },
  {
    "phase": "TASK",
    "condition": "Cond4",
    "trial_num": 46,
    "trial_length": 8,
    "click_num": 8,
    "RT": 963,
    "action": 0,
    "reward": -2.4
  },
  {
    "phase": "TASK",
    "condition": "Cond4",
    "trial_num": 47,
    "trial_length": 6,
    "click_num": 1,
    "RT": 1134,
    "action": 1,
    "reward": -2.7
  },
  {
    "phase": "TASK",
    "condition": "Cond4",
    "trial_num": 47,
    "trial_length": 6,
    "click_num": 2,
    "RT": 1599,
    "action": 1,
    "reward": -3.2
  },
  {
    "phase": "TASK",
    "condition": "Cond4",
    "trial_num": 47,
    "trial_length": 6,
    "click_num": 3,
    "RT": 1209,
    "action": 0,
    "reward": -2.7
  },
  {
    "phase": "TASK",
    "condition": "Cond4",
    "trial_num": 47,
    "trial_length": 6,
    "click_num": 4,
    "RT": 1232,
    "action": 1,
    "reward": -4.5
  },
  {
    "phase": "TASK",
    "condition": "Cond4",
    "trial_num": 47,
    "trial_length": 6,
    "click_num": 5,
    "RT": 1127,
    "action": 0,
    "reward": -2.7
  },
  {
    "phase": "TASK",
    "condition": "Cond4",
    "trial_num": 47,
    "trial_length": 6,
    "click_num": 6,
    "RT": 1159,
    "action": 1,
    "reward": -2.9
  },
  {
    "phase": "TASK",
    "condition": "Cond4",
    "trial_num": 48,
    "trial_length": 9,
    "click_num": 1,
    "RT": 1195,
    "action": 1,
    "reward": -2.1
  },
  {
    "phase": "TASK",
    "condition": "Cond4",
    "trial_num": 48,
    "trial_length": 9,
    "click_num": 2,
    "RT": 1992,
    "action": 0,
    "reward": -2.1
  },
  {
    "phase": "TASK",
    "condition": "Cond4",
    "trial_num": 48,
    "trial_length": 9,
    "click_num": 3,
    "RT": 1087,
    "action": 0,
    "reward": -2.1
  },
  {
    "phase": "TASK",
    "condition": "Cond4",
    "trial_num": 48,
    "trial_length": 9,
    "click_num": 4,
    "RT": 833,
    "action": 0,
    "reward": -2.1
  },
  {
    "phase": "TASK",
    "condition": "Cond4",
    "trial_num": 48,
    "trial_length": 9,
    "click_num": 5,
    "RT": 823,
    "action": 0,
    "reward": -2.1
  },
  {
    "phase": "TASK",
    "condition": "Cond4",
    "trial_num": 48,
    "trial_length": 9,
    "click_num": 6,
    "RT": 788,
    "action": 0,
    "reward": -2.1
  },
  {
    "phase": "TASK",
    "condition": "Cond4",
    "trial_num": 48,
    "trial_length": 9,
    "click_num": 7,
    "RT": 751,
    "action": 0,
    "reward": -2.1
  },
  {
    "phase": "TASK",
    "condition": "Cond4",
    "trial_num": 48,
    "trial_length": 9,
    "click_num": 8,
    "RT": 742,
    "action": 0,
    "reward": -2.1
  },
  {
    "phase": "TASK",
    "condition": "Cond4",
    "trial_num": 48,
    "trial_length": 9,
    "click_num": 9,
    "RT": 672,
    "action": 0,
    "reward": -2.1
  },
  {
    "phase": "TASK",
    "condition": "Cond4",
    "trial_num": 49,
    "trial_length": 9,
    "click_num": 1,
    "RT": 1122,
    "action": 1,
    "reward": -2.6
  },
  {
    "phase": "TASK",
    "condition": "Cond4",
    "trial_num": 49,
    "trial_length": 9,
    "click_num": 2,
    "RT": 1345,
    "action": 1,
    "reward": -3.4
  },
  {
    "phase": "TASK",
    "condition": "Cond4",
    "trial_num": 49,
    "trial_length": 9,
    "click_num": 3,
    "RT": 1217,
    "action": 1,
    "reward": -2
  },
  {
    "phase": "TASK",
    "condition": "Cond4",
    "trial_num": 49,
    "trial_length": 9,
    "click_num": 4,
    "RT": 1374,
    "action": 0,
    "reward": -2
  },
  {
    "phase": "TASK",
    "condition": "Cond4",
    "trial_num": 49,
    "trial_length": 9,
    "click_num": 5,
    "RT": 728,
    "action": 0,
    "reward": -2
  },
  {
    "phase": "TASK",
    "condition": "Cond4",
    "trial_num": 49,
    "trial_length": 9,
    "click_num": 6,
    "RT": 1043,
    "action": 0,
    "reward": -2
  },
  {
    "phase": "TASK",
    "condition": "Cond4",
    "trial_num": 49,
    "trial_length": 9,
    "click_num": 7,
    "RT": 766,
    "action": 0,
    "reward": -2
  },
  {
    "phase": "TASK",
    "condition": "Cond4",
    "trial_num": 49,
    "trial_length": 9,
    "click_num": 8,
    "RT": 832,
    "action": 0,
    "reward": -2
  },
  {
    "phase": "TASK",
    "condition": "Cond4",
    "trial_num": 49,
    "trial_length": 9,
    "click_num": 9,
    "RT": 1639,
    "action": 0,
    "reward": -2
  },
  {
    "phase": "TASK",
    "condition": "Cond4",
    "trial_num": 50,
    "trial_length": 5,
    "click_num": 1,
    "RT": 2239,
    "action": 1,
    "reward": -3.1
  },
  {
    "phase": "TASK",
    "condition": "Cond4",
    "trial_num": 50,
    "trial_length": 5,
    "click_num": 2,
    "RT": 1592,
    "action": 1,
    "reward": -3.8
  },
  {
    "phase": "TASK",
    "condition": "Cond4",
    "trial_num": 50,
    "trial_length": 5,
    "click_num": 3,
    "RT": 1658,
    "action": 1,
    "reward": -3.5
  },
  {
    "phase": "TASK",
    "condition": "Cond4",
    "trial_num": 50,
    "trial_length": 5,
    "click_num": 4,
    "RT": 1424,
    "action": 1,
    "reward": -2.9
  },
  {
    "phase": "TASK",
    "condition": "Cond4",
    "trial_num": 50,
    "trial_length": 5,
    "click_num": 5,
    "RT": 1461,
    "action": 1,
    "reward": -3.5
  },
  {
    "phase": "TASK",
    "condition": "Cond4",
    "trial_num": 51,
    "trial_length": 8,
    "click_num": 1,
    "RT": 5032,
    "action": 1,
    "reward": -3.6
  },
  {
    "phase": "TASK",
    "condition": "Cond4",
    "trial_num": 51,
    "trial_length": 8,
    "click_num": 2,
    "RT": 1549,
    "action": 1,
    "reward": -2.6
  },
  {
    "phase": "TASK",
    "condition": "Cond4",
    "trial_num": 51,
    "trial_length": 8,
    "click_num": 3,
    "RT": 1729,
    "action": 0,
    "reward": -2.6
  },
  {
    "phase": "TASK",
    "condition": "Cond4",
    "trial_num": 51,
    "trial_length": 8,
    "click_num": 4,
    "RT": 1177,
    "action": 0,
    "reward": -2.6
  },
  {
    "phase": "TASK",
    "condition": "Cond4",
    "trial_num": 51,
    "trial_length": 8,
    "click_num": 5,
    "RT": 742,
    "action": 0,
    "reward": -2.6
  },
  {
    "phase": "TASK",
    "condition": "Cond4",
    "trial_num": 51,
    "trial_length": 8,
    "click_num": 6,
    "RT": 840,
    "action": 0,
    "reward": -2.6
  },
  {
    "phase": "TASK",
    "condition": "Cond4",
    "trial_num": 51,
    "trial_length": 8,
    "click_num": 7,
    "RT": 1057,
    "action": 0,
    "reward": -2.6
  },
  {
    "phase": "TASK",
    "condition": "Cond4",
    "trial_num": 51,
    "trial_length": 8,
    "click_num": 8,
    "RT": 800,
    "action": 0,
    "reward": -2.6
  },
  {
    "phase": "TASK",
    "condition": "Cond4",
    "trial_num": 52,
    "trial_length": 6,
    "click_num": 1,
    "RT": 1157,
    "action": 1,
    "reward": -2.9
  },
  {
    "phase": "TASK",
    "condition": "Cond4",
    "trial_num": 52,
    "trial_length": 6,
    "click_num": 2,
    "RT": 1450,
    "action": 1,
    "reward": -3.5
  },
  {
    "phase": "TASK",
    "condition": "Cond4",
    "trial_num": 52,
    "trial_length": 6,
    "click_num": 3,
    "RT": 1673,
    "action": 1,
    "reward": -3.1
  },
  {
    "phase": "TASK",
    "condition": "Cond4",
    "trial_num": 52,
    "trial_length": 6,
    "click_num": 4,
    "RT": 1503,
    "action": 0,
    "reward": -2.9
  },
  {
    "phase": "TASK",
    "condition": "Cond4",
    "trial_num": 52,
    "trial_length": 6,
    "click_num": 5,
    "RT": 846,
    "action": 0,
    "reward": -2.9
  },
  {
    "phase": "TASK",
    "condition": "Cond4",
    "trial_num": 52,
    "trial_length": 6,
    "click_num": 6,
    "RT": 1339,
    "action": 1,
    "reward": -2.4
  },
  {
    "phase": "TASK",
    "condition": "Cond4",
    "trial_num": 53,
    "trial_length": 9,
    "click_num": 1,
    "RT": 1655,
    "action": 1,
    "reward": -2.6
  },
  {
    "phase": "TASK",
    "condition": "Cond4",
    "trial_num": 53,
    "trial_length": 9,
    "click_num": 2,
    "RT": 1615,
    "action": 1,
    "reward": -3.1
  },
  {
    "phase": "TASK",
    "condition": "Cond4",
    "trial_num": 53,
    "trial_length": 9,
    "click_num": 3,
    "RT": 1185,
    "action": 1,
    "reward": -3.6
  },
  {
    "phase": "TASK",
    "condition": "Cond4",
    "trial_num": 53,
    "trial_length": 9,
    "click_num": 4,
    "RT": 1192,
    "action": 0,
    "reward": -2.6
  },
  {
    "phase": "TASK",
    "condition": "Cond4",
    "trial_num": 53,
    "trial_length": 9,
    "click_num": 5,
    "RT": 735,
    "action": 0,
    "reward": -2.6
  },
  {
    "phase": "TASK",
    "condition": "Cond4",
    "trial_num": 53,
    "trial_length": 9,
    "click_num": 6,
    "RT": 759,
    "action": 0,
    "reward": -2.6
  },
  {
    "phase": "TASK",
    "condition": "Cond4",
    "trial_num": 53,
    "trial_length": 9,
    "click_num": 7,
    "RT": 728,
    "action": 0,
    "reward": -2.6
  },
  {
    "phase": "TASK",
    "condition": "Cond4",
    "trial_num": 53,
    "trial_length": 9,
    "click_num": 8,
    "RT": 737,
    "action": 0,
    "reward": -2.6
  },
  {
    "phase": "TASK",
    "condition": "Cond4",
    "trial_num": 53,
    "trial_length": 9,
    "click_num": 9,
    "RT": 735,
    "action": 0,
    "reward": -2.6
  },
  {
    "phase": "TASK",
    "condition": "Cond4",
    "trial_num": 54,
    "trial_length": 5,
    "click_num": 1,
    "RT": 1095,
    "action": 1,
    "reward": -2.8
  },
  {
    "phase": "TASK",
    "condition": "Cond4",
    "trial_num": 54,
    "trial_length": 5,
    "click_num": 2,
    "RT": 1455,
    "action": 1,
    "reward": -1.8
  },
  {
    "phase": "TASK",
    "condition": "Cond4",
    "trial_num": 54,
    "trial_length": 5,
    "click_num": 3,
    "RT": 1328,
    "action": 0,
    "reward": -1.8
  },
  {
    "phase": "TASK",
    "condition": "Cond4",
    "trial_num": 54,
    "trial_length": 5,
    "click_num": 4,
    "RT": 1473,
    "action": 0,
    "reward": -1.8
  },
  {
    "phase": "TASK",
    "condition": "Cond4",
    "trial_num": 54,
    "trial_length": 5,
    "click_num": 5,
    "RT": 952,
    "action": 0,
    "reward": -1.8
  },
  {
    "phase": "TASK",
    "condition": "Cond4",
    "trial_num": 55,
    "trial_length": 10,
    "click_num": 1,
    "RT": 1646,
    "action": 1,
    "reward": -2.8
  },
  {
    "phase": "TASK",
    "condition": "Cond4",
    "trial_num": 55,
    "trial_length": 10,
    "click_num": 2,
    "RT": 1313,
    "action": 1,
    "reward": -3.3
  },
  {
    "phase": "TASK",
    "condition": "Cond4",
    "trial_num": 55,
    "trial_length": 10,
    "click_num": 3,
    "RT": 1280,
    "action": 1,
    "reward": -3.2
  },
  {
    "phase": "TASK",
    "condition": "Cond4",
    "trial_num": 55,
    "trial_length": 10,
    "click_num": 4,
    "RT": 1176,
    "action": 1,
    "reward": -2.1
  },
  {
    "phase": "TASK",
    "condition": "Cond4",
    "trial_num": 55,
    "trial_length": 10,
    "click_num": 5,
    "RT": 1346,
    "action": 0,
    "reward": -2.1
  },
  {
    "phase": "TASK",
    "condition": "Cond4",
    "trial_num": 55,
    "trial_length": 10,
    "click_num": 6,
    "RT": 1215,
    "action": 0,
    "reward": -2.1
  },
  {
    "phase": "TASK",
    "condition": "Cond4",
    "trial_num": 55,
    "trial_length": 10,
    "click_num": 7,
    "RT": 775,
    "action": 0,
    "reward": -2.1
  },
  {
    "phase": "TASK",
    "condition": "Cond4",
    "trial_num": 55,
    "trial_length": 10,
    "click_num": 8,
    "RT": 1111,
    "action": 0,
    "reward": -2.1
  },
  {
    "phase": "TASK",
    "condition": "Cond4",
    "trial_num": 55,
    "trial_length": 10,
    "click_num": 9,
    "RT": 1529,
    "action": 0,
    "reward": -2.1
  },
  {
    "phase": "TASK",
    "condition": "Cond4",
    "trial_num": 55,
    "trial_length": 10,
    "click_num": 10,
    "RT": 1528,
    "action": 0,
    "reward": -2.1
  },
  {
    "phase": "TASK",
    "condition": "Cond4",
    "trial_num": 56,
    "trial_length": 9,
    "click_num": 1,
    "RT": 1245,
    "action": 1,
    "reward": -3.6
  },
  {
    "phase": "TASK",
    "condition": "Cond4",
    "trial_num": 56,
    "trial_length": 9,
    "click_num": 2,
    "RT": 1385,
    "action": 1,
    "reward": -3.7
  },
  {
    "phase": "TASK",
    "condition": "Cond4",
    "trial_num": 56,
    "trial_length": 9,
    "click_num": 3,
    "RT": 1859,
    "action": 1,
    "reward": -3.2
  },
  {
    "phase": "TASK",
    "condition": "Cond4",
    "trial_num": 56,
    "trial_length": 9,
    "click_num": 4,
    "RT": 1096,
    "action": 1,
    "reward": -3.1
  },
  {
    "phase": "TASK",
    "condition": "Cond4",
    "trial_num": 56,
    "trial_length": 9,
    "click_num": 5,
    "RT": 1493,
    "action": 1,
    "reward": -3
  },
  {
    "phase": "TASK",
    "condition": "Cond4",
    "trial_num": 56,
    "trial_length": 9,
    "click_num": 6,
    "RT": 1144,
    "action": 1,
    "reward": -2.9
  },
  {
    "phase": "TASK",
    "condition": "Cond4",
    "trial_num": 56,
    "trial_length": 9,
    "click_num": 7,
    "RT": 1217,
    "action": 1,
    "reward": -2.8
  },
  {
    "phase": "TASK",
    "condition": "Cond4",
    "trial_num": 56,
    "trial_length": 9,
    "click_num": 8,
    "RT": 1671,
    "action": 1,
    "reward": -2.5
  },
  {
    "phase": "TASK",
    "condition": "Cond4",
    "trial_num": 56,
    "trial_length": 9,
    "click_num": 9,
    "RT": 1352,
    "action": 1,
    "reward": -3.4
  },
  {
    "phase": "TASK",
    "condition": "Cond4",
    "trial_num": 57,
    "trial_length": 5,
    "click_num": 1,
    "RT": 1312,
    "action": 1,
    "reward": -3.2
  },
  {
    "phase": "TASK",
    "condition": "Cond4",
    "trial_num": 57,
    "trial_length": 5,
    "click_num": 2,
    "RT": 1366,
    "action": 1,
    "reward": -2.2
  },
  {
    "phase": "TASK",
    "condition": "Cond4",
    "trial_num": 57,
    "trial_length": 5,
    "click_num": 3,
    "RT": 1480,
    "action": 0,
    "reward": -2.2
  },
  {
    "phase": "TASK",
    "condition": "Cond4",
    "trial_num": 57,
    "trial_length": 5,
    "click_num": 4,
    "RT": 888,
    "action": 0,
    "reward": -2.2
  },
  {
    "phase": "TASK",
    "condition": "Cond4",
    "trial_num": 57,
    "trial_length": 5,
    "click_num": 5,
    "RT": 824,
    "action": 0,
    "reward": -2.2
  },
  {
    "phase": "TASK",
    "condition": "Cond4",
    "trial_num": 58,
    "trial_length": 7,
    "click_num": 1,
    "RT": 1682,
    "action": 1,
    "reward": -3.2
  },
  {
    "phase": "TASK",
    "condition": "Cond4",
    "trial_num": 58,
    "trial_length": 7,
    "click_num": 2,
    "RT": 1591,
    "action": 1,
    "reward": -3
  },
  {
    "phase": "TASK",
    "condition": "Cond4",
    "trial_num": 58,
    "trial_length": 7,
    "click_num": 3,
    "RT": 2722,
    "action": 1,
    "reward": -3.7
  },
  {
    "phase": "TASK",
    "condition": "Cond4",
    "trial_num": 58,
    "trial_length": 7,
    "click_num": 4,
    "RT": 7415,
    "action": 1,
    "reward": -4
  },
  {
    "phase": "TASK",
    "condition": "Cond4",
    "trial_num": 58,
    "trial_length": 7,
    "click_num": 5,
    "RT": 1529,
    "action": 1,
    "reward": -3.2
  },
  {
    "phase": "TASK",
    "condition": "Cond4",
    "trial_num": 58,
    "trial_length": 7,
    "click_num": 6,
    "RT": 1455,
    "action": 1,
    "reward": -2.3
  },
  {
    "phase": "TASK",
    "condition": "Cond4",
    "trial_num": 58,
    "trial_length": 7,
    "click_num": 7,
    "RT": 1287,
    "action": 0,
    "reward": -2.3
  },
  {
    "phase": "TASK",
    "condition": "Cond4",
    "trial_num": 59,
    "trial_length": 6,
    "click_num": 1,
    "RT": 1709,
    "action": 1,
    "reward": -3.9
  },
  {
    "phase": "TASK",
    "condition": "Cond4",
    "trial_num": 59,
    "trial_length": 6,
    "click_num": 2,
    "RT": 1469,
    "action": 1,
    "reward": -2.8
  },
  {
    "phase": "TASK",
    "condition": "Cond4",
    "trial_num": 59,
    "trial_length": 6,
    "click_num": 3,
    "RT": 1488,
    "action": 1,
    "reward": -4.3
  },
  {
    "phase": "TASK",
    "condition": "Cond4",
    "trial_num": 59,
    "trial_length": 6,
    "click_num": 4,
    "RT": 1192,
    "action": 1,
    "reward": -3.4
  },
  {
    "phase": "TASK",
    "condition": "Cond4",
    "trial_num": 59,
    "trial_length": 6,
    "click_num": 5,
    "RT": 1247,
    "action": 1,
    "reward": -3
  },
  {
    "phase": "TASK",
    "condition": "Cond4",
    "trial_num": 59,
    "trial_length": 6,
    "click_num": 6,
    "RT": 1457,
    "action": 0,
    "reward": -2.8
  },
  {
    "phase": "TASK",
    "condition": "Cond4",
    "trial_num": 60,
    "trial_length": 6,
    "click_num": 1,
    "RT": 10315,
    "action": 1,
    "reward": -3.2
  },
  {
    "phase": "TASK",
    "condition": "Cond4",
    "trial_num": 60,
    "trial_length": 6,
    "click_num": 2,
    "RT": 2205,
    "action": 1,
    "reward": -4
  },
  {
    "phase": "TASK",
    "condition": "Cond4",
    "trial_num": 60,
    "trial_length": 6,
    "click_num": 3,
    "RT": 1496,
    "action": 1,
    "reward": -2.9
  },
  {
    "phase": "TASK",
    "condition": "Cond4",
    "trial_num": 60,
    "trial_length": 6,
    "click_num": 4,
    "RT": 1551,
    "action": 1,
    "reward": -2.5
  },
  {
    "phase": "TASK",
    "condition": "Cond4",
    "trial_num": 60,
    "trial_length": 6,
    "click_num": 5,
    "RT": 1113,
    "action": 0,
    "reward": -2.5
  },
  {
    "phase": "TASK",
    "condition": "Cond4",
    "trial_num": 60,
    "trial_length": 6,
    "click_num": 6,
    "RT": 1711,
    "action": 0,
    "reward": -2.5
  },
  {
    "phase": "TASK",
    "condition": "Cond4",
    "trial_num": 61,
    "trial_length": 9,
    "click_num": 1,
    "RT": 1375,
    "action": 1,
    "reward": -3
  },
  {
    "phase": "TASK",
    "condition": "Cond4",
    "trial_num": 61,
    "trial_length": 9,
    "click_num": 2,
    "RT": 1624,
    "action": 1,
    "reward": -3.8
  },
  {
    "phase": "TASK",
    "condition": "Cond4",
    "trial_num": 61,
    "trial_length": 9,
    "click_num": 3,
    "RT": 1136,
    "action": 1,
    "reward": -2.2
  },
  {
    "phase": "TASK",
    "condition": "Cond4",
    "trial_num": 61,
    "trial_length": 9,
    "click_num": 4,
    "RT": 1864,
    "action": 0,
    "reward": -2.2
  },
  {
    "phase": "TASK",
    "condition": "Cond4",
    "trial_num": 61,
    "trial_length": 9,
    "click_num": 5,
    "RT": 945,
    "action": 0,
    "reward": -2.2
  },
  {
    "phase": "TASK",
    "condition": "Cond4",
    "trial_num": 61,
    "trial_length": 9,
    "click_num": 6,
    "RT": 833,
    "action": 0,
    "reward": -2.2
  },
  {
    "phase": "TASK",
    "condition": "Cond4",
    "trial_num": 61,
    "trial_length": 9,
    "click_num": 7,
    "RT": 839,
    "action": 0,
    "reward": -2.2
  },
  {
    "phase": "TASK",
    "condition": "Cond4",
    "trial_num": 61,
    "trial_length": 9,
    "click_num": 8,
    "RT": 872,
    "action": 0,
    "reward": -2.2
  },
  {
    "phase": "TASK",
    "condition": "Cond4",
    "trial_num": 61,
    "trial_length": 9,
    "click_num": 9,
    "RT": 914,
    "action": 0,
    "reward": -2.2
  },
  {
    "phase": "TASK",
    "condition": "Cond4",
    "trial_num": 62,
    "trial_length": 7,
    "click_num": 1,
    "RT": 1552,
    "action": 1,
    "reward": -2.9
  },
  {
    "phase": "TASK",
    "condition": "Cond4",
    "trial_num": 62,
    "trial_length": 7,
    "click_num": 2,
    "RT": 1488,
    "action": 1,
    "reward": -2.8
  },
  {
    "phase": "TASK",
    "condition": "Cond4",
    "trial_num": 62,
    "trial_length": 7,
    "click_num": 3,
    "RT": 1375,
    "action": 1,
    "reward": -3.8
  },
  {
    "phase": "TASK",
    "condition": "Cond4",
    "trial_num": 62,
    "trial_length": 7,
    "click_num": 4,
    "RT": 1970,
    "action": 0,
    "reward": -2.8
  },
  {
    "phase": "TASK",
    "condition": "Cond4",
    "trial_num": 62,
    "trial_length": 7,
    "click_num": 5,
    "RT": 928,
    "action": 0,
    "reward": -2.8
  },
  {
    "phase": "TASK",
    "condition": "Cond4",
    "trial_num": 62,
    "trial_length": 7,
    "click_num": 6,
    "RT": 1055,
    "action": 0,
    "reward": -2.8
  },
  {
    "phase": "TASK",
    "condition": "Cond4",
    "trial_num": 62,
    "trial_length": 7,
    "click_num": 7,
    "RT": 1143,
    "action": 0,
    "reward": -2.8
  },
  {
    "phase": "TASK",
    "condition": "Cond4",
    "trial_num": 63,
    "trial_length": 10,
    "click_num": 1,
    "RT": 1223,
    "action": 1,
    "reward": -3.4
  },
  {
    "phase": "TASK",
    "condition": "Cond4",
    "trial_num": 63,
    "trial_length": 10,
    "click_num": 2,
    "RT": 1318,
    "action": 1,
    "reward": -2.9
  },
  {
    "phase": "TASK",
    "condition": "Cond4",
    "trial_num": 63,
    "trial_length": 10,
    "click_num": 3,
    "RT": 1256,
    "action": 1,
    "reward": -3.6
  },
  {
    "phase": "TASK",
    "condition": "Cond4",
    "trial_num": 63,
    "trial_length": 10,
    "click_num": 4,
    "RT": 1160,
    "action": 1,
    "reward": -2.9
  },
  {
    "phase": "TASK",
    "condition": "Cond4",
    "trial_num": 63,
    "trial_length": 10,
    "click_num": 5,
    "RT": 1560,
    "action": 1,
    "reward": -3.2
  },
  {
    "phase": "TASK",
    "condition": "Cond4",
    "trial_num": 63,
    "trial_length": 10,
    "click_num": 6,
    "RT": 1384,
    "action": 0,
    "reward": -2.9
  },
  {
    "phase": "TASK",
    "condition": "Cond4",
    "trial_num": 63,
    "trial_length": 10,
    "click_num": 7,
    "RT": 920,
    "action": 0,
    "reward": -2.9
  },
  {
    "phase": "TASK",
    "condition": "Cond4",
    "trial_num": 63,
    "trial_length": 10,
    "click_num": 8,
    "RT": 992,
    "action": 0,
    "reward": -2.9
  },
  {
    "phase": "TASK",
    "condition": "Cond4",
    "trial_num": 63,
    "trial_length": 10,
    "click_num": 9,
    "RT": 947,
    "action": 0,
    "reward": -2.9
  },
  {
    "phase": "TASK",
    "condition": "Cond4",
    "trial_num": 63,
    "trial_length": 10,
    "click_num": 10,
    "RT": 959,
    "action": 1,
    "reward": -3
  },
  {
    "phase": "TASK",
    "condition": "Cond4",
    "trial_num": 64,
    "trial_length": 8,
    "click_num": 1,
    "RT": 1493,
    "action": 1,
    "reward": -3.3
  },
  {
    "phase": "TASK",
    "condition": "Cond4",
    "trial_num": 64,
    "trial_length": 8,
    "click_num": 2,
    "RT": 1378,
    "action": 1,
    "reward": -3.1
  },
  {
    "phase": "TASK",
    "condition": "Cond4",
    "trial_num": 64,
    "trial_length": 8,
    "click_num": 3,
    "RT": 1383,
    "action": 1,
    "reward": -2.7
  },
  {
    "phase": "TASK",
    "condition": "Cond4",
    "trial_num": 64,
    "trial_length": 8,
    "click_num": 4,
    "RT": 1265,
    "action": 1,
    "reward": -2.8
  },
  {
    "phase": "TASK",
    "condition": "Cond4",
    "trial_num": 64,
    "trial_length": 8,
    "click_num": 5,
    "RT": 1222,
    "action": 0,
    "reward": -2.7
  },
  {
    "phase": "TASK",
    "condition": "Cond4",
    "trial_num": 64,
    "trial_length": 8,
    "click_num": 6,
    "RT": 800,
    "action": 0,
    "reward": -2.7
  },
  {
    "phase": "TASK",
    "condition": "Cond4",
    "trial_num": 64,
    "trial_length": 8,
    "click_num": 7,
    "RT": 823,
    "action": 0,
    "reward": -2.7
  },
  {
    "phase": "TASK",
    "condition": "Cond4",
    "trial_num": 64,
    "trial_length": 8,
    "click_num": 8,
    "RT": 828,
    "action": 0,
    "reward": -2.7
  },
  {
    "phase": "TASK",
    "condition": "Cond4",
    "trial_num": 65,
    "trial_length": 10,
    "click_num": 1,
    "RT": 1143,
    "action": 1,
    "reward": -3.2
  },
  {
    "phase": "TASK",
    "condition": "Cond4",
    "trial_num": 65,
    "trial_length": 10,
    "click_num": 2,
    "RT": 1352,
    "action": 1,
    "reward": -2.5
  },
  {
    "phase": "TASK",
    "condition": "Cond4",
    "trial_num": 65,
    "trial_length": 10,
    "click_num": 3,
    "RT": 1513,
    "action": 0,
    "reward": -2.5
  },
  {
    "phase": "TASK",
    "condition": "Cond4",
    "trial_num": 65,
    "trial_length": 10,
    "click_num": 4,
    "RT": 1112,
    "action": 0,
    "reward": -2.5
  },
  {
    "phase": "TASK",
    "condition": "Cond4",
    "trial_num": 65,
    "trial_length": 10,
    "click_num": 5,
    "RT": 847,
    "action": 0,
    "reward": -2.5
  },
  {
    "phase": "TASK",
    "condition": "Cond4",
    "trial_num": 65,
    "trial_length": 10,
    "click_num": 6,
    "RT": 904,
    "action": 1,
    "reward": -3
  },
  {
    "phase": "TASK",
    "condition": "Cond4",
    "trial_num": 65,
    "trial_length": 10,
    "click_num": 7,
    "RT": 1615,
    "action": 0,
    "reward": -2.5
  },
  {
    "phase": "TASK",
    "condition": "Cond4",
    "trial_num": 65,
    "trial_length": 10,
    "click_num": 8,
    "RT": 841,
    "action": 0,
    "reward": -2.5
  },
  {
    "phase": "TASK",
    "condition": "Cond4",
    "trial_num": 65,
    "trial_length": 10,
    "click_num": 9,
    "RT": 911,
    "action": 0,
    "reward": -2.5
  },
  {
    "phase": "TASK",
    "condition": "Cond4",
    "trial_num": 65,
    "trial_length": 10,
    "click_num": 10,
    "RT": 880,
    "action": 0,
    "reward": -2.5
  },
  {
    "phase": "TASK",
    "condition": "Cond4",
    "trial_num": 66,
    "trial_length": 7,
    "click_num": 1,
    "RT": 1160,
    "action": 1,
    "reward": -1.8
  },
  {
    "phase": "TASK",
    "condition": "Cond4",
    "trial_num": 66,
    "trial_length": 7,
    "click_num": 2,
    "RT": 1448,
    "action": 0,
    "reward": -1.8
  },
  {
    "phase": "TASK",
    "condition": "Cond4",
    "trial_num": 66,
    "trial_length": 7,
    "click_num": 3,
    "RT": 1313,
    "action": 0,
    "reward": -1.8
  },
  {
    "phase": "TASK",
    "condition": "Cond4",
    "trial_num": 66,
    "trial_length": 7,
    "click_num": 4,
    "RT": 1167,
    "action": 0,
    "reward": -1.8
  },
  {
    "phase": "TASK",
    "condition": "Cond4",
    "trial_num": 66,
    "trial_length": 7,
    "click_num": 5,
    "RT": 865,
    "action": 0,
    "reward": -1.8
  },
  {
    "phase": "TASK",
    "condition": "Cond4",
    "trial_num": 66,
    "trial_length": 7,
    "click_num": 6,
    "RT": 1054,
    "action": 0,
    "reward": -1.8
  },
  {
    "phase": "TASK",
    "condition": "Cond4",
    "trial_num": 66,
    "trial_length": 7,
    "click_num": 7,
    "RT": 859,
    "action": 0,
    "reward": -1.8
  },
  {
    "phase": "TASK",
    "condition": "Cond4",
    "trial_num": 67,
    "trial_length": 5,
    "click_num": 1,
    "RT": 1151,
    "action": 1,
    "reward": -3.1
  },
  {
    "phase": "TASK",
    "condition": "Cond4",
    "trial_num": 67,
    "trial_length": 5,
    "click_num": 2,
    "RT": 1287,
    "action": 1,
    "reward": -2.2
  },
  {
    "phase": "TASK",
    "condition": "Cond4",
    "trial_num": 67,
    "trial_length": 5,
    "click_num": 3,
    "RT": 1655,
    "action": 0,
    "reward": -2.2
  },
  {
    "phase": "TASK",
    "condition": "Cond4",
    "trial_num": 67,
    "trial_length": 5,
    "click_num": 4,
    "RT": 1367,
    "action": 0,
    "reward": -2.2
  },
  {
    "phase": "TASK",
    "condition": "Cond4",
    "trial_num": 67,
    "trial_length": 5,
    "click_num": 5,
    "RT": 859,
    "action": 0,
    "reward": -2.2
  },
  {
    "phase": "TASK",
    "condition": "Cond4",
    "trial_num": 68,
    "trial_length": 6,
    "click_num": 1,
    "RT": 2741,
    "action": 1,
    "reward": -1.8
  },
  {
    "phase": "TASK",
    "condition": "Cond4",
    "trial_num": 68,
    "trial_length": 6,
    "click_num": 2,
    "RT": 2139,
    "action": 0,
    "reward": -1.8
  },
  {
    "phase": "TASK",
    "condition": "Cond4",
    "trial_num": 68,
    "trial_length": 6,
    "click_num": 3,
    "RT": 774,
    "action": 0,
    "reward": -1.8
  },
  {
    "phase": "TASK",
    "condition": "Cond4",
    "trial_num": 68,
    "trial_length": 6,
    "click_num": 4,
    "RT": 839,
    "action": 0,
    "reward": -1.8
  },
  {
    "phase": "TASK",
    "condition": "Cond4",
    "trial_num": 68,
    "trial_length": 6,
    "click_num": 5,
    "RT": 776,
    "action": 0,
    "reward": -1.8
  },
  {
    "phase": "TASK",
    "condition": "Cond4",
    "trial_num": 68,
    "trial_length": 6,
    "click_num": 6,
    "RT": 1082,
    "action": 0,
    "reward": -1.8
  },
  {
    "phase": "TASK",
    "condition": "Cond4",
    "trial_num": 69,
    "trial_length": 10,
    "click_num": 1,
    "RT": 940,
    "action": 1,
    "reward": -2.7
  },
  {
    "phase": "TASK",
    "condition": "Cond4",
    "trial_num": 69,
    "trial_length": 10,
    "click_num": 2,
    "RT": 1704,
    "action": 1,
    "reward": -2.8
  },
  {
    "phase": "TASK",
    "condition": "Cond4",
    "trial_num": 69,
    "trial_length": 10,
    "click_num": 3,
    "RT": 1219,
    "action": 1,
    "reward": -3.1
  },
  {
    "phase": "TASK",
    "condition": "Cond4",
    "trial_num": 69,
    "trial_length": 10,
    "click_num": 4,
    "RT": 1144,
    "action": 1,
    "reward": -2.6
  },
  {
    "phase": "TASK",
    "condition": "Cond4",
    "trial_num": 69,
    "trial_length": 10,
    "click_num": 5,
    "RT": 1341,
    "action": 1,
    "reward": -2.5
  },
  {
    "phase": "TASK",
    "condition": "Cond4",
    "trial_num": 69,
    "trial_length": 10,
    "click_num": 6,
    "RT": 1551,
    "action": 1,
    "reward": -4.3
  },
  {
    "phase": "TASK",
    "condition": "Cond4",
    "trial_num": 69,
    "trial_length": 10,
    "click_num": 7,
    "RT": 1394,
    "action": 0,
    "reward": -2.5
  },
  {
    "phase": "TASK",
    "condition": "Cond4",
    "trial_num": 69,
    "trial_length": 10,
    "click_num": 8,
    "RT": 825,
    "action": 0,
    "reward": -2.5
  },
  {
    "phase": "TASK",
    "condition": "Cond4",
    "trial_num": 69,
    "trial_length": 10,
    "click_num": 9,
    "RT": 790,
    "action": 0,
    "reward": -2.5
  },
  {
    "phase": "TASK",
    "condition": "Cond4",
    "trial_num": 69,
    "trial_length": 10,
    "click_num": 10,
    "RT": 808,
    "action": 0,
    "reward": -2.5
  },
  {
    "phase": "TASK",
    "condition": "Cond4",
    "trial_num": 70,
    "trial_length": 10,
    "click_num": 1,
    "RT": 1219,
    "action": 1,
    "reward": -3.4
  },
  {
    "phase": "TASK",
    "condition": "Cond4",
    "trial_num": 70,
    "trial_length": 10,
    "click_num": 2,
    "RT": 2184,
    "action": 1,
    "reward": -2.5
  },
  {
    "phase": "TASK",
    "condition": "Cond4",
    "trial_num": 70,
    "trial_length": 10,
    "click_num": 3,
    "RT": 1418,
    "action": 0,
    "reward": -2.5
  },
  {
    "phase": "TASK",
    "condition": "Cond4",
    "trial_num": 70,
    "trial_length": 10,
    "click_num": 4,
    "RT": 806,
    "action": 0,
    "reward": -2.5
  },
  {
    "phase": "TASK",
    "condition": "Cond4",
    "trial_num": 70,
    "trial_length": 10,
    "click_num": 5,
    "RT": 855,
    "action": 0,
    "reward": -2.5
  },
  {
    "phase": "TASK",
    "condition": "Cond4",
    "trial_num": 70,
    "trial_length": 10,
    "click_num": 6,
    "RT": 784,
    "action": 0,
    "reward": -2.5
  },
  {
    "phase": "TASK",
    "condition": "Cond4",
    "trial_num": 70,
    "trial_length": 10,
    "click_num": 7,
    "RT": 730,
    "action": 0,
    "reward": -2.5
  },
  {
    "phase": "TASK",
    "condition": "Cond4",
    "trial_num": 70,
    "trial_length": 10,
    "click_num": 8,
    "RT": 734,
    "action": 0,
    "reward": -2.5
  },
  {
    "phase": "TASK",
    "condition": "Cond4",
    "trial_num": 70,
    "trial_length": 10,
    "click_num": 9,
    "RT": 747,
    "action": 0,
    "reward": -2.5
  },
  {
    "phase": "TASK",
    "condition": "Cond4",
    "trial_num": 70,
    "trial_length": 10,
    "click_num": 10,
    "RT": 830,
    "action": 0,
    "reward": -2.5
  },
  {
    "phase": "TASK",
    "condition": "Cond4",
    "trial_num": 71,
    "trial_length": 5,
    "click_num": 1,
    "RT": 1446,
    "action": 1,
    "reward": -2.1
  },
  {
    "phase": "TASK",
    "condition": "Cond4",
    "trial_num": 71,
    "trial_length": 5,
    "click_num": 2,
    "RT": 1455,
    "action": 0,
    "reward": -2.1
  },
  {
    "phase": "TASK",
    "condition": "Cond4",
    "trial_num": 71,
    "trial_length": 5,
    "click_num": 3,
    "RT": 731,
    "action": 0,
    "reward": -2.1
  },
  {
    "phase": "TASK",
    "condition": "Cond4",
    "trial_num": 71,
    "trial_length": 5,
    "click_num": 4,
    "RT": 1432,
    "action": 0,
    "reward": -2.1
  },
  {
    "phase": "TASK",
    "condition": "Cond4",
    "trial_num": 71,
    "trial_length": 5,
    "click_num": 5,
    "RT": 1032,
    "action": 0,
    "reward": -2.1
  },
  {
    "phase": "TASK",
    "condition": "Cond4",
    "trial_num": 72,
    "trial_length": 8,
    "click_num": 1,
    "RT": 2232,
    "action": 1,
    "reward": -3.4
  },
  {
    "phase": "TASK",
    "condition": "Cond4",
    "trial_num": 72,
    "trial_length": 8,
    "click_num": 2,
    "RT": 1509,
    "action": 1,
    "reward": -2.3
  },
  {
    "phase": "TASK",
    "condition": "Cond4",
    "trial_num": 72,
    "trial_length": 8,
    "click_num": 3,
    "RT": 5738,
    "action": 1,
    "reward": -3
  },
  {
    "phase": "TASK",
    "condition": "Cond4",
    "trial_num": 72,
    "trial_length": 8,
    "click_num": 4,
    "RT": 1727,
    "action": 0,
    "reward": -2.3
  },
  {
    "phase": "TASK",
    "condition": "Cond4",
    "trial_num": 72,
    "trial_length": 8,
    "click_num": 5,
    "RT": 865,
    "action": 0,
    "reward": -2.3
  },
  {
    "phase": "TASK",
    "condition": "Cond4",
    "trial_num": 72,
    "trial_length": 8,
    "click_num": 6,
    "RT": 838,
    "action": 0,
    "reward": -2.3
  },
  {
    "phase": "TASK",
    "condition": "Cond4",
    "trial_num": 72,
    "trial_length": 8,
    "click_num": 7,
    "RT": 1050,
    "action": 0,
    "reward": -2.3
  },
  {
    "phase": "TASK",
    "condition": "Cond4",
    "trial_num": 72,
    "trial_length": 8,
    "click_num": 8,
    "RT": 816,
    "action": 0,
    "reward": -2.3
  },
  {
    "phase": "TASK",
    "condition": "Cond4",
    "trial_num": 73,
    "trial_length": 6,
    "click_num": 1,
    "RT": 1161,
    "action": 1,
    "reward": -2.9
  },
  {
    "phase": "TASK",
    "condition": "Cond4",
    "trial_num": 73,
    "trial_length": 6,
    "click_num": 2,
    "RT": 1421,
    "action": 1,
    "reward": -3.4
  },
  {
    "phase": "TASK",
    "condition": "Cond4",
    "trial_num": 73,
    "trial_length": 6,
    "click_num": 3,
    "RT": 1168,
    "action": 1,
    "reward": -3.2
  },
  {
    "phase": "TASK",
    "condition": "Cond4",
    "trial_num": 73,
    "trial_length": 6,
    "click_num": 4,
    "RT": 1327,
    "action": 0,
    "reward": -2.9
  },
  {
    "phase": "TASK",
    "condition": "Cond4",
    "trial_num": 73,
    "trial_length": 6,
    "click_num": 5,
    "RT": 1139,
    "action": 1,
    "reward": -3.2
  },
  {
    "phase": "TASK",
    "condition": "Cond4",
    "trial_num": 73,
    "trial_length": 6,
    "click_num": 6,
    "RT": 1144,
    "action": 0,
    "reward": -2.9
  },
  {
    "phase": "TASK",
    "condition": "Cond4",
    "trial_num": 74,
    "trial_length": 10,
    "click_num": 1,
    "RT": 1222,
    "action": 1,
    "reward": -3.1
  },
  {
    "phase": "TASK",
    "condition": "Cond4",
    "trial_num": 74,
    "trial_length": 10,
    "click_num": 2,
    "RT": 1248,
    "action": 1,
    "reward": -2.7
  },
  {
    "phase": "TASK",
    "condition": "Cond4",
    "trial_num": 74,
    "trial_length": 10,
    "click_num": 3,
    "RT": 1443,
    "action": 1,
    "reward": -2.5
  },
  {
    "phase": "TASK",
    "condition": "Cond4",
    "trial_num": 74,
    "trial_length": 10,
    "click_num": 4,
    "RT": 1174,
    "action": 1,
    "reward": -2.5
  },
  {
    "phase": "TASK",
    "condition": "Cond4",
    "trial_num": 74,
    "trial_length": 10,
    "click_num": 5,
    "RT": 1590,
    "action": 0,
    "reward": -2.5
  },
  {
    "phase": "TASK",
    "condition": "Cond4",
    "trial_num": 74,
    "trial_length": 10,
    "click_num": 6,
    "RT": 937,
    "action": 0,
    "reward": -2.5
  },
  {
    "phase": "TASK",
    "condition": "Cond4",
    "trial_num": 74,
    "trial_length": 10,
    "click_num": 7,
    "RT": 873,
    "action": 0,
    "reward": -2.5
  },
  {
    "phase": "TASK",
    "condition": "Cond4",
    "trial_num": 74,
    "trial_length": 10,
    "click_num": 8,
    "RT": 960,
    "action": 0,
    "reward": -2.5
  },
  {
    "phase": "TASK",
    "condition": "Cond4",
    "trial_num": 74,
    "trial_length": 10,
    "click_num": 9,
    "RT": 1342,
    "action": 1,
    "reward": -3
  },
  {
    "phase": "TASK",
    "condition": "Cond4",
    "trial_num": 74,
    "trial_length": 10,
    "click_num": 10,
    "RT": 1129,
    "action": 0,
    "reward": -2.5
  },
  {
    "phase": "TASK",
    "condition": "Cond4",
    "trial_num": 75,
    "trial_length": 8,
    "click_num": 1,
    "RT": 1299,
    "action": 1,
    "reward": -3.8
  },
  {
    "phase": "TASK",
    "condition": "Cond4",
    "trial_num": 75,
    "trial_length": 8,
    "click_num": 2,
    "RT": 1585,
    "action": 1,
    "reward": -3.4
  },
  {
    "phase": "TASK",
    "condition": "Cond4",
    "trial_num": 75,
    "trial_length": 8,
    "click_num": 3,
    "RT": 1135,
    "action": 1,
    "reward": -4.1
  },
  {
