[
  {
    "phase": "TASK",
    "condition": "Cond4",
    "trial_num": 1,
    "trial_length": 8,
    "click_num": 1,
    "RT": 8250,
    "action": 1,
    "reward": -2.3
  },
  {
    "phase": "TASK",
    "condition": "Cond4",
    "trial_num": 1,
    "trial_length": 8,
    "click_num": 2,
    "RT": 7574,
    "action": 1,
    "reward": -3.2
  },
  {
    "phase": "TASK",
    "condition": "Cond4",
    "trial_num": 1,
    "trial_length": 8,
    "click_num": 3,
    "RT": 12632,
    "action": 1,
    "reward": -2.5
  },
  {
    "phase": "TASK",
    "condition": "Cond4",
    "trial_num": 1,
    "trial_length": 8,
    "click_num": 4,
    "RT": 3799,
    "action": 1,
    "reward": -3.4
  },
  {
    "phase": "TASK",
    "condition": "Cond4",
    "trial_num": 1,
    "trial_length": 8,
    "click_num": 5,
    "RT": 9681,
    "action": 1,
    "reward": -2.5
  },
  {
    "phase": "TASK",
    "condition": "Cond4",
    "trial_num": 1,
    "trial_length": 8,
    "click_num": 6,
    "RT": 1927,
    "action": 1,
    "reward": -3.2
  },
  {
    "phase": "TASK",
    "condition": "Cond4",
    "trial_num": 1,
    "trial_length": 8,
    "click_num": 7,
    "RT": 2720,
    "action": 1,
    "reward": -2.7
  },
  {
    "phase": "TASK",
    "condition": "Cond4",
    "trial_num": 1,
    "trial_length": 8,
    "click_num": 8,
    "RT": 1968,
    "action": 1,
    "reward": -3.5
  },
  {
    "phase": "TASK",
    "condition": "Cond4",
    "trial_num": 2,
    "trial_length": 9,
    "click_num": 1,
    "RT": 8345,
    "action": 1,
    "reward": -3.5
  },
  {
    "phase": "TASK",
    "condition": "Cond4",
    "trial_num": 2,
    "trial_length": 9,
    "click_num": 2,
    "RT": 4405,
    "action": 1,
    "reward": -3.1
  },
  {
    "phase": "TASK",
    "condition": "Cond4",
    "trial_num": 2,
    "trial_length": 9,
    "click_num": 3,
    "RT": 2523,
    "action": 1,
    "reward": -3.1
  },
  {
    "phase": "TASK",
    "condition": "Cond4",
    "trial_num": 2,
    "trial_length": 9,
    "click_num": 4,
    "RT": 2365,
    "action": 1,
    "reward": -3.2
  },
  {
    "phase": "TASK",
    "condition": "Cond4",
    "trial_num": 2,
    "trial_length": 9,
    "click_num": 5,
    "RT": 1747,
    "action": 1,
    "reward": -3.3
  },
  {
    "phase": "TASK",
    "condition": "Cond4",
    "trial_num": 2,
    "trial_length": 9,
    "click_num": 6,
    "RT": 1613,
    "action": 1,
    "reward": -2.6
  },
  {
    "phase": "TASK",
    "condition": "Cond4",
    "trial_num": 2,
    "trial_length": 9,
    "click_num": 7,
    "RT": 2744,
    "action": 1,
    "reward": -2.9
  },
  {
    "phase": "TASK",
    "condition": "Cond4",
    "trial_num": 2,
    "trial_length": 9,
    "click_num": 8,
    "RT": 1616,
    "action": 1,
    "reward": -3.2
  },
  {
    "phase": "TASK",
    "condition": "Cond4",
    "trial_num": 2,
    "trial_length": 9,
    "click_num": 9,
    "RT": 2616,
    "action": 0,
    "reward": -2.6
  },
  {
    "phase": "TASK",
    "condition": "Cond4",
    "trial_num": 3,
    "trial_length": 5,
    "click_num": 1,
    "RT": 7863,
    "action": 1,
    "reward": -4.3
  },
  {
    "phase": "TASK",
    "condition": "Cond4",
    "trial_num": 3,
    "trial_length": 5,
    "click_num": 2,
    "RT": 2592,
    "action": 1,
    "reward": -1.5
  },
  {
    "phase": "TASK",
    "condition": "Cond4",
    "trial_num": 3,
    "trial_length": 5,
    "click_num": 3,
    "RT": 2375,
    "action": 0,
    "reward": -1.5
  },
  {
    "phase": "TASK",
    "condition": "Cond4",
    "trial_num": 3,
    "trial_length": 5,
    "click_num": 4,
    "RT": 1280,
    "action": 0,
    "reward": -1.5
  },
  {
    "phase": "TASK",
    "condition": "Cond4",
    "trial_num": 3,
    "trial_length": 5,
    "click_num": 5,
    "RT": 1400,
    "action": 0,
    "reward": -1.5
  },
  {
    "phase": "TASK",
    "condition": "Cond4",
    "trial_num": 4,
    "trial_length": 9,
    "click_num": 1,
    "RT": 5439,
    "action": 1,
    "reward": -3.2
  },
  {
    "phase": "TASK",
    "condition": "Cond4",
    "trial_num": 4,
    "trial_length": 9,
    "click_num": 2,
    "RT": 1577,
    "action": 1,
    "reward": -2.4
  },
  {
    "phase": "TASK",
    "condition": "Cond4",
    "trial_num": 4,
    "trial_length": 9,
    "click_num": 3,
    "RT": 1687,
    "action": 1,
    "reward": -2.3
  },
  {
    "phase": "TASK",
    "condition": "Cond4",
    "trial_num": 4,
    "trial_length": 9,
    "click_num": 4,
    "RT": 2080,
    "action": 1,
    "reward": -2.4
  },
  {
    "phase": "TASK",
    "condition": "Cond4",
    "trial_num": 4,
    "trial_length": 9,
    "click_num": 5,
    "RT": 1800,
    "action": 1,
    "reward": -3.7
  },
  {
    "phase": "TASK",
    "condition": "Cond4",
    "trial_num": 4,
    "trial_length": 9,
    "click_num": 6,
    "RT": 1464,
    "action": 0,
    "reward": -2.3
  },
  {
    "phase": "TASK",
    "condition": "Cond4",
    "trial_num": 4,
    "trial_length": 9,
    "click_num": 7,
    "RT": 1496,
    "action": 0,
    "reward": -2.3
  },
  {
    "phase": "TASK",
    "condition": "Cond4",
    "trial_num": 4,
    "trial_length": 9,
    "click_num": 8,
    "RT": 1032,
    "action": 1,
    "reward": -3.4
  },
  {
    "phase": "TASK",
    "condition": "Cond4",
    "trial_num": 4,
    "trial_length": 9,
    "click_num": 9,
    "RT": 1745,
    "action": 0,
    "reward": -2.3
  },
  {
    "phase": "TASK",
    "condition": "Cond4",
    "trial_num": 5,
    "trial_length": 6,
    "click_num": 1,
    "RT": 11430,
    "action": 1,
    "reward": -2.8
  },
  {
    "phase": "TASK",
    "condition": "Cond4",
    "trial_num": 5,
    "trial_length": 6,
    "click_num": 2,
    "RT": 1775,
    "action": 1,
    "reward": -2.7
  },
  {
    "phase": "TASK",
    "condition": "Cond4",
    "trial_num": 5,
    "trial_length": 6,
    "click_num": 3,
    "RT": 1449,
    "action": 1,
    "reward": -3.6
  },
  {
    "phase": "TASK",
    "condition": "Cond4",
    "trial_num": 5,
    "trial_length": 6,
    "click_num": 4,
    "RT": 1598,
    "action": 0,
    "reward": -2.7
  },
  {
    "phase": "TASK",
    "condition": "Cond4",
    "trial_num": 5,
    "trial_length": 6,
    "click_num": 5,
    "RT": 1041,
    "action": 1,
    "reward": -2.9
  },
  {
    "phase": "TASK",
    "condition": "Cond4",
    "trial_num": 5,
    "trial_length": 6,
    "click_num": 6,
    "RT": 1426,
    "action": 0,
    "reward": -2.7
  },
  {
    "phase": "TASK",
    "condition": "Cond4",
    "trial_num": 6,
    "trial_length": 5,
    "click_num": 1,
    "RT": 4635,
    "action": 1,
    "reward": -3
  },
  {
    "phase": "TASK",
    "condition": "Cond4",
    "trial_num": 6,
    "trial_length": 5,
    "click_num": 2,
    "RT": 1905,
    "action": 1,
    "reward": -3.5
  },
  {
    "phase": "TASK",
    "condition": "Cond4",
    "trial_num": 6,
    "trial_length": 5,
    "click_num": 3,
    "RT": 1224,
    "action": 1,
    "reward": -3.6
  },
  {
    "phase": "TASK",
    "condition": "Cond4",
    "trial_num": 6,
    "trial_length": 5,
    "click_num": 4,
    "RT": 1312,
    "action": 1,
    "reward": -2.7
  },
  {
    "phase": "TASK",
    "condition": "Cond4",
    "trial_num": 6,
    "trial_length": 5,
    "click_num": 5,
    "RT": 2800,
    "action": 0,
    "reward": -2.7
  },
  {
    "phase": "TASK",
    "condition": "Cond4",
    "trial_num": 7,
    "trial_length": 8,
    "click_num": 1,
    "RT": 1845,
    "action": 1,
    "reward": -2.9
  },
  {
    "phase": "TASK",
    "condition": "Cond4",
    "trial_num": 7,
    "trial_length": 8,
    "click_num": 2,
    "RT": 1480,
    "action": 1,
    "reward": -2.8
  },
  {
    "phase": "TASK",
    "condition": "Cond4",
    "trial_num": 7,
    "trial_length": 8,
    "click_num": 3,
    "RT": 2207,
    "action": 1,
    "reward": -2.4
  },
  {
    "phase": "TASK",
    "condition": "Cond4",
    "trial_num": 7,
    "trial_length": 8,
    "click_num": 4,
    "RT": 1916,
    "action": 0,
    "reward": -2.4
  },
  {
    "phase": "TASK",
    "condition": "Cond4",
    "trial_num": 7,
    "trial_length": 8,
    "click_num": 5,
    "RT": 1245,
    "action": 0,
    "reward": -2.4
  },
  {
    "phase": "TASK",
    "condition": "Cond4",
    "trial_num": 7,
    "trial_length": 8,
    "click_num": 6,
    "RT": 1048,
    "action": 0,
    "reward": -2.4
  },
  {
    "phase": "TASK",
    "condition": "Cond4",
    "trial_num": 7,
    "trial_length": 8,
    "click_num": 7,
    "RT": 1482,
    "action": 0,
    "reward": -2.4
  },
  {
    "phase": "TASK",
    "condition": "Cond4",
    "trial_num": 7,
    "trial_length": 8,
    "click_num": 8,
    "RT": 1318,
    "action": 0,
    "reward": -2.4
  },
  {
    "phase": "TASK",
    "condition": "Cond4",
    "trial_num": 8,
    "trial_length": 7,
    "click_num": 1,
    "RT": 7547,
    "action": 1,
    "reward": -3.4
  },
  {
    "phase": "TASK",
    "condition": "Cond4",
    "trial_num": 8,
    "trial_length": 7,
    "click_num": 2,
    "RT": 1618,
    "action": 1,
    "reward": -2.2
  },
  {
    "phase": "TASK",
    "condition": "Cond4",
    "trial_num": 8,
    "trial_length": 7,
    "click_num": 3,
    "RT": 1184,
    "action": 1,
    "reward": -3.2
  },
  {
    "phase": "TASK",
    "condition": "Cond4",
    "trial_num": 8,
    "trial_length": 7,
    "click_num": 4,
    "RT": 1379,
    "action": 0,
    "reward": -2.2
  },
  {
    "phase": "TASK",
    "condition": "Cond4",
    "trial_num": 8,
    "trial_length": 7,
    "click_num": 5,
    "RT": 1221,
    "action": 0,
    "reward": -2.2
  },
  {
    "phase": "TASK",
    "condition": "Cond4",
    "trial_num": 8,
    "trial_length": 7,
    "click_num": 6,
    "RT": 992,
    "action": 1,
    "reward": -3.9
  },
  {
    "phase": "TASK",
    "condition": "Cond4",
    "trial_num": 8,
    "trial_length": 7,
    "click_num": 7,
    "RT": 1160,
    "action": 0,
    "reward": -2.2
  },
  {
    "phase": "TASK",
    "condition": "Cond4",
    "trial_num": 9,
    "trial_length": 10,
    "click_num": 1,
    "RT": 3736,
    "action": 1,
    "reward": -4.5
  },
  {
    "phase": "TASK",
    "condition": "Cond4",
    "trial_num": 9,
    "trial_length": 10,
    "click_num": 2,
    "RT": 1426,
    "action": 1,
    "reward": -3.5
  },
  {
    "phase": "TASK",
    "condition": "Cond4",
    "trial_num": 9,
    "trial_length": 10,
    "click_num": 3,
    "RT": 1181,
    "action": 1,
    "reward": -3.1
  },
  {
    "phase": "TASK",
    "condition": "Cond4",
    "trial_num": 9,
    "trial_length": 10,
    "click_num": 4,
    "RT": 1040,
    "action": 1,
    "reward": -2.3
  },
  {
    "phase": "TASK",
    "condition": "Cond4",
    "trial_num": 9,
    "trial_length": 10,
    "click_num": 5,
    "RT": 2531,
    "action": 1,
    "reward": -3.5
  },
  {
    "phase": "TASK",
    "condition": "Cond4",
    "trial_num": 9,
    "trial_length": 10,
    "click_num": 6,
    "RT": 1269,
    "action": 0,
    "reward": -2.3
  },
  {
    "phase": "TASK",
    "condition": "Cond4",
    "trial_num": 9,
    "trial_length": 10,
    "click_num": 7,
    "RT": 1008,
    "action": 0,
    "reward": -2.3
  },
  {
    "phase": "TASK",
    "condition": "Cond4",
    "trial_num": 9,
    "trial_length": 10,
    "click_num": 8,
    "RT": 891,
    "action": 0,
    "reward": -2.3
  },
  {
    "phase": "TASK",
    "condition": "Cond4",
    "trial_num": 9,
    "trial_length": 10,
    "click_num": 9,
    "RT": 1685,
    "action": 0,
    "reward": -2.3
  },
  {
    "phase": "TASK",
    "condition": "Cond4",
    "trial_num": 9,
    "trial_length": 10,
    "click_num": 10,
    "RT": 1000,
    "action": 0,
    "reward": -2.3
  },
  {
    "phase": "TASK",
    "condition": "Cond4",
    "trial_num": 10,
    "trial_length": 7,
    "click_num": 1,
    "RT": 4350,
    "action": 1,
    "reward": -3.3
  },
  {
    "phase": "TASK",
    "condition": "Cond4",
    "trial_num": 10,
    "trial_length": 7,
    "click_num": 2,
    "RT": 1974,
    "action": 1,
    "reward": -3.2
  },
  {
    "phase": "TASK",
    "condition": "Cond4",
    "trial_num": 10,
    "trial_length": 7,
    "click_num": 3,
    "RT": 2311,
    "action": 1,
    "reward": -3.9
  },
  {
    "phase": "TASK",
    "condition": "Cond4",
    "trial_num": 10,
    "trial_length": 7,
    "click_num": 4,
    "RT": 1104,
    "action": 1,
    "reward": -2.1
  },
  {
    "phase": "TASK",
    "condition": "Cond4",
    "trial_num": 10,
    "trial_length": 7,
    "click_num": 5,
    "RT": 1329,
    "action": 0,
    "reward": -2.1
  },
  {
    "phase": "TASK",
    "condition": "Cond4",
    "trial_num": 10,
    "trial_length": 7,
    "click_num": 6,
    "RT": 1127,
    "action": 0,
    "reward": -2.1
  },
  {
    "phase": "TASK",
    "condition": "Cond4",
    "trial_num": 10,
    "trial_length": 7,
    "click_num": 7,
    "RT": 1802,
    "action": 0,
    "reward": -2.1
  },
  {
    "phase": "TASK",
    "condition": "Cond4",
    "trial_num": 11,
    "trial_length": 9,
    "click_num": 1,
    "RT": 11422,
    "action": 1,
    "reward": -2.4
  },
  {
    "phase": "TASK",
    "condition": "Cond4",
    "trial_num": 11,
    "trial_length": 9,
    "click_num": 2,
    "RT": 2152,
    "action": 1,
    "reward": -2.6
  },
  {
    "phase": "TASK",
    "condition": "Cond4",
    "trial_num": 11,
    "trial_length": 9,
    "click_num": 3,
    "RT": 1264,
    "action": 1,
    "reward": -1.7
  },
  {
    "phase": "TASK",
    "condition": "Cond4",
    "trial_num": 11,
    "trial_length": 9,
    "click_num": 4,
    "RT": 1343,
    "action": 0,
    "reward": -1.7
  },
  {
    "phase": "TASK",
    "condition": "Cond4",
    "trial_num": 11,
    "trial_length": 9,
    "click_num": 5,
    "RT": 948,
    "action": 0,
    "reward": -1.7
  },
  {
    "phase": "TASK",
    "condition": "Cond4",
    "trial_num": 11,
    "trial_length": 9,
    "click_num": 6,
    "RT": 1381,
    "action": 0,
    "reward": -1.7
  },
  {
    "phase": "TASK",
    "condition": "Cond4",
    "trial_num": 11,
    "trial_length": 9,
    "click_num": 7,
    "RT": 904,
    "action": 0,
    "reward": -1.7
  },
  {
    "phase": "TASK",
    "condition": "Cond4",
    "trial_num": 11,
    "trial_length": 9,
    "click_num": 8,
    "RT": 1207,
    "action": 0,
    "reward": -1.7
  },
  {
    "phase": "TASK",
    "condition": "Cond4",
    "trial_num": 11,
    "trial_length": 9,
    "click_num": 9,
    "RT": 1380,
    "action": 1,
    "reward": -2.6
  },
  {
    "phase": "TASK",
    "condition": "Cond4",
    "trial_num": 12,
    "trial_length": 6,
    "click_num": 1,
    "RT": 1606,
    "action": 1,
    "reward": -3.7
  },
  {
    "phase": "TASK",
    "condition": "Cond4",
    "trial_num": 12,
    "trial_length": 6,
    "click_num": 2,
    "RT": 1681,
    "action": 1,
    "reward": -3.1
  },
  {
    "phase": "TASK",
    "condition": "Cond4",
    "trial_num": 12,
    "trial_length": 6,
    "click_num": 3,
    "RT": 1103,
    "action": 1,
    "reward": -2.6
  },
  {
    "phase": "TASK",
    "condition": "Cond4",
    "trial_num": 12,
    "trial_length": 6,
    "click_num": 4,
    "RT": 1168,
    "action": 1,
    "reward": -3.1
  },
  {
    "phase": "TASK",
    "condition": "Cond4",
    "trial_num": 12,
    "trial_length": 6,
    "click_num": 5,
    "RT": 1175,
    "action": 1,
    "reward": -2.8
  },
  {
    "phase": "TASK",
    "condition": "Cond4",
    "trial_num": 12,
    "trial_length": 6,
    "click_num": 6,
    "RT": 1921,
    "action": 1,
    "reward": -3.3
  },
  {
    "phase": "TASK",
    "condition": "Cond4",
    "trial_num": 13,
    "trial_length": 7,
    "click_num": 1,
    "RT": 1798,
    "action": 1,
    "reward": -3.7
  },
  {
    "phase": "TASK",
    "condition": "Cond4",
    "trial_num": 13,
    "trial_length": 7,
    "click_num": 2,
    "RT": 1336,
    "action": 1,
    "reward": -3.2
  },
  {
    "phase": "TASK",
    "condition": "Cond4",
    "trial_num": 13,
    "trial_length": 7,
    "click_num": 3,
    "RT": 1096,
    "action": 1,
    "reward": -2.8
  },
  {
    "phase": "TASK",
    "condition": "Cond4",
    "trial_num": 13,
    "trial_length": 7,
    "click_num": 4,
    "RT": 1071,
    "action": 1,
    "reward": -2.4
  },
  {
    "phase": "TASK",
    "condition": "Cond4",
    "trial_num": 13,
    "trial_length": 7,
    "click_num": 5,
    "RT": 1209,
    "action": 1,
    "reward": -3
  },
  {
    "phase": "TASK",
    "condition": "Cond4",
    "trial_num": 13,
    "trial_length": 7,
    "click_num": 6,
    "RT": 1911,
    "action": 0,
    "reward": -2.4
  },
  {
    "phase": "TASK",
    "condition": "Cond4",
    "trial_num": 13,
    "trial_length": 7,
    "click_num": 7,
    "RT": 848,
    "action": 0,
    "reward": -2.4
  },
  {
    "phase": "TASK",
    "condition": "Cond4",
    "trial_num": 14,
    "trial_length": 9,
    "click_num": 1,
    "RT": 1487,
    "action": 1,
    "reward": -3.7
  },
  {
    "phase": "TASK",
    "condition": "Cond4",
    "trial_num": 14,
    "trial_length": 9,
    "click_num": 2,
    "RT": 1243,
    "action": 1,
    "reward": -3.3
  },
  {
    "phase": "TASK",
    "condition": "Cond4",
    "trial_num": 14,
    "trial_length": 9,
    "click_num": 3,
    "RT": 1333,
    "action": 1,
    "reward": -3.1
  },
  {
    "phase": "TASK",
    "condition": "Cond4",
    "trial_num": 14,
    "trial_length": 9,
    "click_num": 4,
    "RT": 1082,
    "action": 1,
    "reward": -2.3
  },
  {
    "phase": "TASK",
    "condition": "Cond4",
    "trial_num": 14,
    "trial_length": 9,
    "click_num": 5,
    "RT": 1661,
    "action": 0,
    "reward": -2.3
  },
  {
    "phase": "TASK",
    "condition": "Cond4",
    "trial_num": 14,
    "trial_length": 9,
    "click_num": 6,
    "RT": 1000,
    "action": 0,
    "reward": -2.3
  },
  {
    "phase": "TASK",
    "condition": "Cond4",
    "trial_num": 14,
    "trial_length": 9,
    "click_num": 7,
    "RT": 1057,
    "action": 0,
    "reward": -2.3
  },
  {
    "phase": "TASK",
    "condition": "Cond4",
    "trial_num": 14,
    "trial_length": 9,
    "click_num": 8,
    "RT": 775,
    "action": 1,
    "reward": -4.5
  },
  {
    "phase": "TASK",
    "condition": "Cond4",
    "trial_num": 14,
    "trial_length": 9,
    "click_num": 9,
    "RT": 1104,
    "action": 0,
    "reward": -2.3
  },
  {
    "phase": "TASK",
    "condition": "Cond4",
    "trial_num": 15,
    "trial_length": 8,
    "click_num": 1,
    "RT": 1441,
    "action": 1,
    "reward": -3.8
  },
  {
    "phase": "TASK",
    "condition": "Cond4",
    "trial_num": 15,
    "trial_length": 8,
    "click_num": 2,
    "RT": 1247,
    "action": 1,
    "reward": -3.1
  },
  {
    "phase": "TASK",
    "condition": "Cond4",
    "trial_num": 15,
    "trial_length": 8,
    "click_num": 3,
    "RT": 898,
    "action": 1,
    "reward": -2.8
  },
  {
    "phase": "TASK",
    "condition": "Cond4",
    "trial_num": 15,
    "trial_length": 8,
    "click_num": 4,
    "RT": 973,
    "action": 1,
    "reward": -4.2
  },
  {
    "phase": "TASK",
    "condition": "Cond4",
    "trial_num": 15,
    "trial_length": 8,
    "click_num": 5,
    "RT": 1363,
    "action": 1,
    "reward": -2.8
  },
  {
    "phase": "TASK",
    "condition": "Cond4",
    "trial_num": 15,
    "trial_length": 8,
    "click_num": 6,
    "RT": 1414,
    "action": 1,
    "reward": -2.8
  },
  {
    "phase": "TASK",
    "condition": "Cond4",
    "trial_num": 15,
    "trial_length": 8,
    "click_num": 7,
    "RT": 1554,
    "action": 1,
    "reward": -2.5
  },
  {
    "phase": "TASK",
    "condition": "Cond4",
    "trial_num": 15,
    "trial_length": 8,
    "click_num": 8,
    "RT": 1653,
    "action": 0,
    "reward": -2.5
  },
  {
    "phase": "TASK",
    "condition": "Cond4",
    "trial_num": 16,
    "trial_length": 9,
    "click_num": 1,
    "RT": 1343,
    "action": 1,
    "reward": -2.5
  },
  {
    "phase": "TASK",
    "condition": "Cond4",
    "trial_num": 16,
    "trial_length": 9,
    "click_num": 2,
    "RT": 1216,
    "action": 1,
    "reward": -2.3
  },
  {
    "phase": "TASK",
    "condition": "Cond4",
    "trial_num": 16,
    "trial_length": 9,
    "click_num": 3,
    "RT": 1547,
    "action": 1,
    "reward": -2.3
  },
  {
    "phase": "TASK",
    "condition": "Cond4",
    "trial_num": 16,
    "trial_length": 9,
    "click_num": 4,
    "RT": 1301,
    "action": 1,
    "reward": -2.8
  },
  {
    "phase": "TASK",
    "condition": "Cond4",
    "trial_num": 16,
    "trial_length": 9,
    "click_num": 5,
    "RT": 1714,
    "action": 1,
    "reward": -3.8
  },
  {
    "phase": "TASK",
    "condition": "Cond4",
    "trial_num": 16,
    "trial_length": 9,
    "click_num": 6,
    "RT": 1326,
    "action": 0,
    "reward": -2.3
  },
  {
    "phase": "TASK",
    "condition": "Cond4",
    "trial_num": 16,
    "trial_length": 9,
    "click_num": 7,
    "RT": 857,
    "action": 0,
    "reward": -2.3
  },
  {
    "phase": "TASK",
    "condition": "Cond4",
    "trial_num": 16,
    "trial_length": 9,
    "click_num": 8,
    "RT": 935,
    "action": 0,
    "reward": -2.3
  },
  {
    "phase": "TASK",
    "condition": "Cond4",
    "trial_num": 16,
    "trial_length": 9,
    "click_num": 9,
    "RT": 1370,
    "action": 0,
    "reward": -2.3
  },
  {
    "phase": "TASK",
    "condition": "Cond4",
    "trial_num": 17,
    "trial_length": 7,
    "click_num": 1,
    "RT": 17238,
    "action": 1,
    "reward": -2.5
  },
  {
    "phase": "TASK",
    "condition": "Cond4",
    "trial_num": 17,
    "trial_length": 7,
    "click_num": 2,
    "RT": 1671,
    "action": 1,
    "reward": -2.5
  },
  {
    "phase": "TASK",
    "condition": "Cond4",
    "trial_num": 17,
    "trial_length": 7,
    "click_num": 3,
    "RT": 1233,
    "action": 1,
    "reward": -2.9
  },
  {
    "phase": "TASK",
    "condition": "Cond4",
    "trial_num": 17,
    "trial_length": 7,
    "click_num": 4,
    "RT": 1190,
    "action": 1,
    "reward": -4.3
  },
  {
    "phase": "TASK",
    "condition": "Cond4",
    "trial_num": 17,
    "trial_length": 7,
    "click_num": 5,
    "RT": 1944,
    "action": 1,
    "reward": -3
  },
  {
    "phase": "TASK",
    "condition": "Cond4",
    "trial_num": 17,
    "trial_length": 7,
    "click_num": 6,
    "RT": 945,
    "action": 0,
    "reward": -2.5
  },
  {
    "phase": "TASK",
    "condition": "Cond4",
    "trial_num": 17,
    "trial_length": 7,
    "click_num": 7,
    "RT": 710,
    "action": 0,
    "reward": -2.5
  },
  {
    "phase": "TASK",
    "condition": "Cond4",
    "trial_num": 18,
    "trial_length": 10,
    "click_num": 1,
    "RT": 1126,
    "action": 1,
    "reward": -3.6
  },
  {
    "phase": "TASK",
    "condition": "Cond4",
    "trial_num": 18,
    "trial_length": 10,
    "click_num": 2,
    "RT": 898,
    "action": 1,
    "reward": -3.4
  },
  {
    "phase": "TASK",
    "condition": "Cond4",
    "trial_num": 18,
    "trial_length": 10,
    "click_num": 3,
    "RT": 1279,
    "action": 1,
    "reward": -4.1
  },
  {
    "phase": "TASK",
    "condition": "Cond4",
    "trial_num": 18,
    "trial_length": 10,
    "click_num": 4,
    "RT": 1489,
    "action": 1,
    "reward": -2.9
  },
  {
    "phase": "TASK",
    "condition": "Cond4",
    "trial_num": 18,
    "trial_length": 10,
    "click_num": 5,
    "RT": 1278,
    "action": 1,
    "reward": -4.5
  },
  {
    "phase": "TASK",
    "condition": "Cond4",
    "trial_num": 18,
    "trial_length": 10,
    "click_num": 6,
    "RT": 1115,
    "action": 1,
    "reward": -2.7
  },
  {
    "phase": "TASK",
    "condition": "Cond4",
    "trial_num": 18,
    "trial_length": 10,
    "click_num": 7,
    "RT": 2165,
    "action": 0,
    "reward": -2.7
  },
  {
    "phase": "TASK",
    "condition": "Cond4",
    "trial_num": 18,
    "trial_length": 10,
    "click_num": 8,
    "RT": 984,
    "action": 0,
    "reward": -2.7
  },
  {
    "phase": "TASK",
    "condition": "Cond4",
    "trial_num": 18,
    "trial_length": 10,
    "click_num": 9,
    "RT": 888,
    "action": 0,
    "reward": -2.7
  },
  {
    "phase": "TASK",
    "condition": "Cond4",
    "trial_num": 18,
    "trial_length": 10,
    "click_num": 10,
    "RT": 818,
    "action": 0,
    "reward": -2.7
  },
  {
    "phase": "TASK",
    "condition": "Cond4",
    "trial_num": 19,
    "trial_length": 10,
    "click_num": 1,
    "RT": 6591,
    "action": 1,
    "reward": -2.8
  },
  {
    "phase": "TASK",
    "condition": "Cond4",
    "trial_num": 19,
    "trial_length": 10,
    "click_num": 2,
    "RT": 1303,
    "action": 1,
    "reward": -2.8
  },
  {
    "phase": "TASK",
    "condition": "Cond4",
    "trial_num": 19,
    "trial_length": 10,
    "click_num": 3,
    "RT": 1066,
    "action": 1,
    "reward": -2.6
  },
  {
    "phase": "TASK",
    "condition": "Cond4",
    "trial_num": 19,
    "trial_length": 10,
    "click_num": 4,
    "RT": 1062,
    "action": 1,
    "reward": -3.5
  },
  {
    "phase": "TASK",
    "condition": "Cond4",
    "trial_num": 19,
    "trial_length": 10,
    "click_num": 5,
    "RT": 1040,
    "action": 1,
    "reward": -2.6
  },
  {
    "phase": "TASK",
    "condition": "Cond4",
    "trial_num": 19,
    "trial_length": 10,
    "click_num": 6,
    "RT": 1000,
    "action": 1,
    "reward": -3.1
  },
  {
    "phase": "TASK",
    "condition": "Cond4",
    "trial_num": 19,
    "trial_length": 10,
    "click_num": 7,
    "RT": 1152,
    "action": 1,
    "reward": -2.5
  },
  {
    "phase": "TASK",
    "condition": "Cond4",
    "trial_num": 19,
    "trial_length": 10,
    "click_num": 8,
    "RT": 1272,
    "action": 0,
    "reward": -2.5
  },
  {
    "phase": "TASK",
    "condition": "Cond4",
    "trial_num": 19,
    "trial_length": 10,
    "click_num": 9,
    "RT": 721,
    "action": 0,
    "reward": -2.5
  },
  {
    "phase": "TASK",
    "condition": "Cond4",
    "trial_num": 19,
    "trial_length": 10,
    "click_num": 10,
    "RT": 926,
    "action": 0,
    "reward": -2.5
  },
  {
    "phase": "TASK",
    "condition": "Cond4",
    "trial_num": 20,
    "trial_length": 9,
    "click_num": 1,
    "RT": 1217,
    "action": 1,
    "reward": -3.1
  },
  {
    "phase": "TASK",
    "condition": "Cond4",
    "trial_num": 20,
    "trial_length": 9,
    "click_num": 2,
    "RT": 1890,
    "action": 1,
    "reward": -4.2
  },
  {
    "phase": "TASK",
    "condition": "Cond4",
    "trial_num": 20,
    "trial_length": 9,
    "click_num": 3,
    "RT": 1734,
    "action": 1,
    "reward": -4
  },
  {
    "phase": "TASK",
    "condition": "Cond4",
    "trial_num": 20,
    "trial_length": 9,
    "click_num": 4,
    "RT": 1191,
    "action": 1,
    "reward": -3.1
  },
  {
    "phase": "TASK",
    "condition": "Cond4",
    "trial_num": 20,
    "trial_length": 9,
    "click_num": 5,
    "RT": 960,
    "action": 1,
    "reward": -2.5
  },
  {
    "phase": "TASK",
    "condition": "Cond4",
    "trial_num": 20,
    "trial_length": 9,
    "click_num": 6,
    "RT": 1209,
    "action": 0,
    "reward": -2.5
  },
  {
    "phase": "TASK",
    "condition": "Cond4",
    "trial_num": 20,
    "trial_length": 9,
    "click_num": 7,
    "RT": 767,
    "action": 0,
    "reward": -2.5
  },
  {
    "phase": "TASK",
    "condition": "Cond4",
    "trial_num": 20,
    "trial_length": 9,
    "click_num": 8,
    "RT": 687,
    "action": 0,
    "reward": -2.5
  },
  {
    "phase": "TASK",
    "condition": "Cond4",
    "trial_num": 20,
    "trial_length": 9,
    "click_num": 9,
    "RT": 785,
    "action": 0,
    "reward": -2.5
  },
  {
    "phase": "TASK",
    "condition": "Cond4",
    "trial_num": 21,
    "trial_length": 5,
    "click_num": 1,
    "RT": 5112,
    "action": 1,
    "reward": -3.8
  },
  {
    "phase": "TASK",
    "condition": "Cond4",
    "trial_num": 21,
    "trial_length": 5,
    "click_num": 2,
    "RT": 1267,
    "action": 1,
    "reward": -2.7
  },
  {
    "phase": "TASK",
    "condition": "Cond4",
    "trial_num": 21,
    "trial_length": 5,
    "click_num": 3,
    "RT": 1060,
    "action": 1,
    "reward": -2.1
  },
  {
    "phase": "TASK",
    "condition": "Cond4",
    "trial_num": 21,
    "trial_length": 5,
    "click_num": 4,
    "RT": 1151,
    "action": 0,
    "reward": -2.1
  },
  {
    "phase": "TASK",
    "condition": "Cond4",
    "trial_num": 21,
    "trial_length": 5,
    "click_num": 5,
    "RT": 721,
    "action": 0,
    "reward": -2.1
  },
  {
    "phase": "TASK",
    "condition": "Cond4",
    "trial_num": 22,
    "trial_length": 8,
    "click_num": 1,
    "RT": 2072,
    "action": 1,
    "reward": -2.9
  },
  {
    "phase": "TASK",
    "condition": "Cond4",
    "trial_num": 22,
    "trial_length": 8,
    "click_num": 2,
    "RT": 1082,
    "action": 1,
    "reward": -3.3
  },
  {
    "phase": "TASK",
    "condition": "Cond4",
    "trial_num": 22,
    "trial_length": 8,
    "click_num": 3,
    "RT": 1117,
    "action": 1,
    "reward": -3.3
  },
  {
    "phase": "TASK",
    "condition": "Cond4",
    "trial_num": 22,
    "trial_length": 8,
    "click_num": 4,
    "RT": 1186,
    "action": 1,
    "reward": -4
  },
  {
    "phase": "TASK",
    "condition": "Cond4",
    "trial_num": 22,
    "trial_length": 8,
    "click_num": 5,
    "RT": 942,
    "action": 1,
    "reward": -3
  },
  {
    "phase": "TASK",
    "condition": "Cond4",
    "trial_num": 22,
    "trial_length": 8,
    "click_num": 6,
    "RT": 1201,
    "action": 1,
    "reward": -2.8
  },
  {
    "phase": "TASK",
    "condition": "Cond4",
    "trial_num": 22,
    "trial_length": 8,
    "click_num": 7,
    "RT": 1895,
    "action": 1,
    "reward": -2.3
  },
  {
    "phase": "TASK",
    "condition": "Cond4",
    "trial_num": 22,
    "trial_length": 8,
    "click_num": 8,
    "RT": 1523,
    "action": 0,
    "reward": -2.3
  },
  {
    "phase": "TASK",
    "condition": "Cond4",
    "trial_num": 23,
    "trial_length": 8,
    "click_num": 1,
    "RT": 1166,
    "action": 1,
    "reward": -3.8
  },
  {
    "phase": "TASK",
    "condition": "Cond4",
    "trial_num": 23,
    "trial_length": 8,
    "click_num": 2,
    "RT": 3401,
    "action": 1,
    "reward": -3.8
  },
  {
    "phase": "TASK",
    "condition": "Cond4",
    "trial_num": 23,
    "trial_length": 8,
    "click_num": 3,
    "RT": 1194,
    "action": 1,
    "reward": -3.4
  },
  {
    "phase": "TASK",
    "condition": "Cond4",
    "trial_num": 23,
    "trial_length": 8,
    "click_num": 4,
    "RT": 1341,
    "action": 1,
    "reward": -3.5
  },
  {
    "phase": "TASK",
    "condition": "Cond4",
    "trial_num": 23,
    "trial_length": 8,
    "click_num": 5,
    "RT": 1168,
    "action": 1,
    "reward": -2.4
  },
  {
    "phase": "TASK",
    "condition": "Cond4",
    "trial_num": 23,
    "trial_length": 8,
    "click_num": 6,
    "RT": 1751,
    "action": 0,
    "reward": -2.4
  },
  {
    "phase": "TASK",
    "condition": "Cond4",
    "trial_num": 23,
    "trial_length": 8,
    "click_num": 7,
    "RT": 769,
    "action": 0,
    "reward": -2.4
  },
  {
    "phase": "TASK",
    "condition": "Cond4",
    "trial_num": 23,
    "trial_length": 8,
    "click_num": 8,
    "RT": 744,
    "action": 0,
    "reward": -2.4
  },
  {
    "phase": "TASK",
    "condition": "Cond4",
    "trial_num": 24,
    "trial_length": 10,
    "click_num": 1,
    "RT": 1734,
    "action": 1,
    "reward": -4.1
  },
  {
    "phase": "TASK",
    "condition": "Cond4",
    "trial_num": 24,
    "trial_length": 10,
    "click_num": 2,
    "RT": 1305,
    "action": 1,
    "reward": -3.1
  },
  {
    "phase": "TASK",
    "condition": "Cond4",
    "trial_num": 24,
    "trial_length": 10,
    "click_num": 3,
    "RT": 1095,
    "action": 1,
    "reward": -2.3
  },
  {
    "phase": "TASK",
    "condition": "Cond4",
    "trial_num": 24,
    "trial_length": 10,
    "click_num": 4,
    "RT": 2392,
    "action": 0,
    "reward": -2.3
  },
  {
    "phase": "TASK",
    "condition": "Cond4",
    "trial_num": 24,
    "trial_length": 10,
    "click_num": 5,
    "RT": 776,
    "action": 0,
    "reward": -2.3
  },
  {
    "phase": "TASK",
    "condition": "Cond4",
    "trial_num": 24,
    "trial_length": 10,
    "click_num": 6,
    "RT": 681,
    "action": 0,
    "reward": -2.3
  },
  {
    "phase": "TASK",
    "condition": "Cond4",
    "trial_num": 24,
    "trial_length": 10,
    "click_num": 7,
    "RT": 688,
    "action": 0,
    "reward": -2.3
  },
  {
    "phase": "TASK",
    "condition": "Cond4",
    "trial_num": 24,
    "trial_length": 10,
    "click_num": 8,
    "RT": 594,
    "action": 0,
    "reward": -2.3
  },
  {
    "phase": "TASK",
    "condition": "Cond4",
    "trial_num": 24,
    "trial_length": 10,
    "click_num": 9,
    "RT": 613,
    "action": 0,
    "reward": -2.3
  },
  {
    "phase": "TASK",
    "condition": "Cond4",
    "trial_num": 24,
    "trial_length": 10,
    "click_num": 10,
    "RT": 681,
    "action": 0,
    "reward": -2.3
  },
  {
    "phase": "TASK",
    "condition": "Cond4",
    "trial_num": 25,
    "trial_length": 10,
    "click_num": 1,
    "RT": 7858,
    "action": 1,
    "reward": -2.3
  },
  {
    "phase": "TASK",
    "condition": "Cond4",
    "trial_num": 25,
    "trial_length": 10,
    "click_num": 2,
    "RT": 1576,
    "action": 0,
    "reward": -2.3
  },
  {
    "phase": "TASK",
    "condition": "Cond4",
    "trial_num": 25,
    "trial_length": 10,
    "click_num": 3,
    "RT": 634,
    "action": 0,
    "reward": -2.3
  },
  {
    "phase": "TASK",
    "condition": "Cond4",
    "trial_num": 25,
    "trial_length": 10,
    "click_num": 4,
    "RT": 1726,
    "action": 0,
    "reward": -2.3
  },
  {
    "phase": "TASK",
    "condition": "Cond4",
    "trial_num": 25,
    "trial_length": 10,
    "click_num": 5,
    "RT": 1064,
    "action": 0,
    "reward": -2.3
  },
  {
    "phase": "TASK",
    "condition": "Cond4",
    "trial_num": 25,
    "trial_length": 10,
    "click_num": 6,
    "RT": 936,
    "action": 0,
    "reward": -2.3
  },
  {
    "phase": "TASK",
    "condition": "Cond4",
    "trial_num": 25,
    "trial_length": 10,
    "click_num": 7,
    "RT": 680,
    "action": 0,
    "reward": -2.3
  },
  {
    "phase": "TASK",
    "condition": "Cond4",
    "trial_num": 25,
    "trial_length": 10,
    "click_num": 8,
    "RT": 632,
    "action": 0,
    "reward": -2.3
  },
  {
    "phase": "TASK",
    "condition": "Cond4",
    "trial_num": 25,
    "trial_length": 10,
    "click_num": 9,
    "RT": 1263,
    "action": 0,
    "reward": -2.3
  },
  {
    "phase": "TASK",
    "condition": "Cond4",
    "trial_num": 25,
    "trial_length": 10,
    "click_num": 10,
    "RT": 1416,
    "action": 0,
    "reward": -2.3
  },
  {
    "phase": "TASK",
    "condition": "Cond4",
    "trial_num": 26,
    "trial_length": 7,
    "click_num": 1,
    "RT": 1615,
    "action": 1,
    "reward": -3.7
  },
  {
    "phase": "TASK",
    "condition": "Cond4",
    "trial_num": 26,
    "trial_length": 7,
    "click_num": 2,
    "RT": 1135,
    "action": 1,
    "reward": -3.5
  },
  {
    "phase": "TASK",
    "condition": "Cond4",
    "trial_num": 26,
    "trial_length": 7,
    "click_num": 3,
    "RT": 792,
    "action": 1,
    "reward": -3
  },
  {
    "phase": "TASK",
    "condition": "Cond4",
    "trial_num": 26,
    "trial_length": 7,
    "click_num": 4,
    "RT": 968,
    "action": 1,
    "reward": -4.7
  },
  {
    "phase": "TASK",
    "condition": "Cond4",
    "trial_num": 26,
    "trial_length": 7,
    "click_num": 5,
    "RT": 1136,
    "action": 1,
    "reward": -3.4
  },
  {
    "phase": "TASK",
    "condition": "Cond4",
    "trial_num": 26,
    "trial_length": 7,
    "click_num": 6,
    "RT": 1289,
    "action": 1,
    "reward": -2.7
  },
  {
    "phase": "TASK",
    "condition": "Cond4",
    "trial_num": 26,
    "trial_length": 7,
    "click_num": 7,
    "RT": 1735,
    "action": 1,
    "reward": -3.6
  },
  {
    "phase": "TASK",
    "condition": "Cond4",
    "trial_num": 27,
    "trial_length": 6,
    "click_num": 1,
    "RT": 1207,
    "action": 1,
    "reward": -2.8
  },
  {
    "phase": "TASK",
    "condition": "Cond4",
    "trial_num": 27,
    "trial_length": 6,
    "click_num": 2,
    "RT": 1952,
    "action": 1,
    "reward": -3.2
  },
  {
    "phase": "TASK",
    "condition": "Cond4",
    "trial_num": 27,
    "trial_length": 6,
    "click_num": 3,
    "RT": 1065,
    "action": 1,
    "reward": -3
  },
  {
    "phase": "TASK",
    "condition": "Cond4",
    "trial_num": 27,
    "trial_length": 6,
    "click_num": 4,
    "RT": 1232,
    "action": 1,
    "reward": -4.5
  },
  {
    "phase": "TASK",
    "condition": "Cond4",
    "trial_num": 27,
    "trial_length": 6,
    "click_num": 5,
    "RT": 1160,
    "action": 0,
    "reward": -2.8
  },
  {
    "phase": "TASK",
    "condition": "Cond4",
    "trial_num": 27,
    "trial_length": 6,
    "click_num": 6,
    "RT": 666,
    "action": 0,
    "reward": -2.8
  },
  {
    "phase": "TASK",
    "condition": "Cond4",
    "trial_num": 28,
    "trial_length": 10,
    "click_num": 1,
    "RT": 1950,
    "action": 1,
    "reward": -3.6
  },
  {
    "phase": "TASK",
    "condition": "Cond4",
    "trial_num": 28,
    "trial_length": 10,
    "click_num": 2,
    "RT": 1626,
    "action": 1,
    "reward": -3.5
  },
  {
    "phase": "TASK",
    "condition": "Cond4",
    "trial_num": 28,
    "trial_length": 10,
    "click_num": 3,
    "RT": 1270,
    "action": 1,
    "reward": -3.2
  },
  {
    "phase": "TASK",
    "condition": "Cond4",
    "trial_num": 28,
    "trial_length": 10,
    "click_num": 4,
    "RT": 1147,
    "action": 1,
    "reward": -2.3
  },
  {
    "phase": "TASK",
    "condition": "Cond4",
    "trial_num": 28,
    "trial_length": 10,
    "click_num": 5,
    "RT": 1965,
    "action": 0,
    "reward": -2.3
  },
  {
    "phase": "TASK",
    "condition": "Cond4",
    "trial_num": 28,
    "trial_length": 10,
    "click_num": 6,
    "RT": 1312,
    "action": 0,
    "reward": -2.3
  },
  {
    "phase": "TASK",
    "condition": "Cond4",
    "trial_num": 28,
    "trial_length": 10,
    "click_num": 7,
    "RT": 1039,
    "action": 0,
    "reward": -2.3
  },
  {
    "phase": "TASK",
    "condition": "Cond4",
    "trial_num": 28,
    "trial_length": 10,
    "click_num": 8,
    "RT": 897,
    "action": 0,
    "reward": -2.3
  },
  {
    "phase": "TASK",
    "condition": "Cond4",
    "trial_num": 28,
    "trial_length": 10,
    "click_num": 9,
    "RT": 1103,
    "action": 0,
    "reward": -2.3
  },
  {
    "phase": "TASK",
    "condition": "Cond4",
    "trial_num": 28,
    "trial_length": 10,
    "click_num": 10,
    "RT": 1400,
    "action": 0,
    "reward": -2.3
  },
  {
    "phase": "TASK",
    "condition": "Cond4",
    "trial_num": 29,
    "trial_length": 5,
    "click_num": 1,
    "RT": 1309,
    "action": 1,
    "reward": -3.3
  },
  {
    "phase": "TASK",
    "condition": "Cond4",
    "trial_num": 29,
    "trial_length": 5,
    "click_num": 2,
    "RT": 1481,
    "action": 1,
    "reward": -3.1
  },
  {
    "phase": "TASK",
    "condition": "Cond4",
    "trial_num": 29,
    "trial_length": 5,
    "click_num": 3,
    "RT": 1231,
    "action": 1,
    "reward": -2.1
  },
  {
    "phase": "TASK",
    "condition": "Cond4",
    "trial_num": 29,
    "trial_length": 5,
    "click_num": 4,
    "RT": 1339,
    "action": 0,
    "reward": -2.1
  },
  {
    "phase": "TASK",
    "condition": "Cond4",
    "trial_num": 29,
    "trial_length": 5,
    "click_num": 5,
    "RT": 839,
    "action": 0,
    "reward": -2.1
  },
  {
    "phase": "TASK",
    "condition": "Cond4",
    "trial_num": 30,
    "trial_length": 10,
    "click_num": 1,
    "RT": 2171,
    "action": 1,
    "reward": -3.9
  },
  {
    "phase": "TASK",
    "condition": "Cond4",
    "trial_num": 30,
    "trial_length": 10,
    "click_num": 2,
    "RT": 1312,
    "action": 1,
    "reward": -2.3
  },
  {
    "phase": "TASK",
    "condition": "Cond4",
    "trial_num": 30,
    "trial_length": 10,
    "click_num": 3,
    "RT": 1711,
    "action": 0,
    "reward": -2.3
  },
  {
    "phase": "TASK",
    "condition": "Cond4",
    "trial_num": 30,
    "trial_length": 10,
    "click_num": 4,
    "RT": 784,
    "action": 1,
    "reward": -4.3
  },
  {
    "phase": "TASK",
    "condition": "Cond4",
    "trial_num": 30,
    "trial_length": 10,
    "click_num": 5,
    "RT": 1144,
    "action": 0,
    "reward": -2.3
  },
  {
    "phase": "TASK",
    "condition": "Cond4",
    "trial_num": 30,
    "trial_length": 10,
    "click_num": 6,
    "RT": 832,
    "action": 0,
    "reward": -2.3
  },
  {
    "phase": "TASK",
    "condition": "Cond4",
    "trial_num": 30,
    "trial_length": 10,
    "click_num": 7,
    "RT": 817,
    "action": 1,
    "reward": -2.9
  },
  {
    "phase": "TASK",
    "condition": "Cond4",
    "trial_num": 30,
    "trial_length": 10,
    "click_num": 8,
    "RT": 1111,
    "action": 0,
    "reward": -2.3
  },
  {
    "phase": "TASK",
    "condition": "Cond4",
    "trial_num": 30,
    "trial_length": 10,
    "click_num": 9,
    "RT": 715,
    "action": 0,
    "reward": -2.3
  },
  {
    "phase": "TASK",
    "condition": "Cond4",
    "trial_num": 30,
    "trial_length": 10,
    "click_num": 10,
    "RT": 2216,
    "action": 0,
    "reward": -2.3
  },
  {
    "phase": "TASK",
    "condition": "Cond4",
    "trial_num": 31,
    "trial_length": 9,
    "click_num": 1,
    "RT": 1608,
    "action": 1,
    "reward": -2.9
  },
  {
    "phase": "TASK",
    "condition": "Cond4",
    "trial_num": 31,
    "trial_length": 9,
    "click_num": 2,
    "RT": 1246,
    "action": 1,
    "reward": -2.8
  },
  {
    "phase": "TASK",
    "condition": "Cond4",
    "trial_num": 31,
    "trial_length": 9,
    "click_num": 3,
    "RT": 1079,
    "action": 1,
    "reward": -2.2
  },
  {
    "phase": "TASK",
    "condition": "Cond4",
    "trial_num": 31,
    "trial_length": 9,
    "click_num": 4,
    "RT": 1392,
    "action": 0,
    "reward": -2.2
  },
  {
    "phase": "TASK",
    "condition": "Cond4",
    "trial_num": 31,
    "trial_length": 9,
    "click_num": 5,
    "RT": 671,
    "action": 0,
    "reward": -2.2
  },
  {
    "phase": "TASK",
    "condition": "Cond4",
    "trial_num": 31,
    "trial_length": 9,
    "click_num": 6,
    "RT": 682,
    "action": 0,
    "reward": -2.2
  },
  {
    "phase": "TASK",
    "condition": "Cond4",
    "trial_num": 31,
    "trial_length": 9,
    "click_num": 7,
    "RT": 1247,
    "action": 0,
    "reward": -2.2
  },
  {
    "phase": "TASK",
    "condition": "Cond4",
    "trial_num": 31,
    "trial_length": 9,
    "click_num": 8,
    "RT": 1473,
    "action": 0,
    "reward": -2.2
  },
  {
    "phase": "TASK",
    "condition": "Cond4",
    "trial_num": 31,
    "trial_length": 9,
    "click_num": 9,
    "RT": 849,
    "action": 0,
    "reward": -2.2
  },
  {
    "phase": "TASK",
    "condition": "Cond4",
    "trial_num": 32,
    "trial_length": 5,
    "click_num": 1,
    "RT": 1168,
    "action": 1,
    "reward": -2.9
  },
  {
    "phase": "TASK",
    "condition": "Cond4",
    "trial_num": 32,
    "trial_length": 5,
    "click_num": 2,
    "RT": 1117,
    "action": 1,
    "reward": -2.8
  },
  {
    "phase": "TASK",
    "condition": "Cond4",
    "trial_num": 32,
    "trial_length": 5,
    "click_num": 3,
    "RT": 1200,
    "action": 1,
    "reward": -2.8
  },
  {
    "phase": "TASK",
    "condition": "Cond4",
    "trial_num": 32,
    "trial_length": 5,
    "click_num": 4,
    "RT": 1137,
    "action": 1,
    "reward": -4
  },
  {
    "phase": "TASK",
    "condition": "Cond4",
    "trial_num": 32,
    "trial_length": 5,
    "click_num": 5,
    "RT": 1576,
    "action": 1,
    "reward": -3.9
  },
  {
    "phase": "TASK",
    "condition": "Cond4",
    "trial_num": 33,
    "trial_length": 9,
    "click_num": 1,
    "RT": 2044,
    "action": 1,
    "reward": -1.9
  },
  {
    "phase": "TASK",
    "condition": "Cond4",
    "trial_num": 33,
    "trial_length": 9,
    "click_num": 2,
    "RT": 1488,
    "action": 0,
    "reward": -1.9
  },
  {
    "phase": "TASK",
    "condition": "Cond4",
    "trial_num": 33,
    "trial_length": 9,
    "click_num": 3,
    "RT": 608,
    "action": 0,
    "reward": -1.9
  },
  {
    "phase": "TASK",
    "condition": "Cond4",
    "trial_num": 33,
    "trial_length": 9,
    "click_num": 4,
    "RT": 728,
    "action": 0,
    "reward": -1.9
  },
  {
    "phase": "TASK",
    "condition": "Cond4",
    "trial_num": 33,
    "trial_length": 9,
    "click_num": 5,
    "RT": 600,
    "action": 0,
    "reward": -1.9
  },
  {
    "phase": "TASK",
    "condition": "Cond4",
    "trial_num": 33,
    "trial_length": 9,
    "click_num": 6,
    "RT": 648,
    "action": 0,
    "reward": -1.9
  },
  {
    "phase": "TASK",
    "condition": "Cond4",
    "trial_num": 33,
    "trial_length": 9,
    "click_num": 7,
    "RT": 684,
    "action": 0,
    "reward": -1.9
  },
  {
    "phase": "TASK",
    "condition": "Cond4",
    "trial_num": 33,
    "trial_length": 9,
    "click_num": 8,
    "RT": 749,
    "action": 0,
    "reward": -1.9
  },
  {
    "phase": "TASK",
    "condition": "Cond4",
    "trial_num": 33,
    "trial_length": 9,
    "click_num": 9,
    "RT": 935,
    "action": 0,
    "reward": -1.9
  },
  {
    "phase": "TASK",
    "condition": "Cond4",
    "trial_num": 34,
    "trial_length": 6,
    "click_num": 1,
    "RT": 6014,
    "action": 1,
    "reward": -3.2
  },
  {
    "phase": "TASK",
    "condition": "Cond4",
    "trial_num": 34,
    "trial_length": 6,
    "click_num": 2,
    "RT": 1160,
    "action": 1,
    "reward": -2.3
  },
  {
    "phase": "TASK",
    "condition": "Cond4",
    "trial_num": 34,
    "trial_length": 6,
    "click_num": 3,
    "RT": 1112,
    "action": 0,
    "reward": -2.3
  },
  {
    "phase": "TASK",
    "condition": "Cond4",
    "trial_num": 34,
    "trial_length": 6,
    "click_num": 4,
    "RT": 926,
    "action": 0,
    "reward": -2.3
  },
  {
    "phase": "TASK",
    "condition": "Cond4",
    "trial_num": 34,
    "trial_length": 6,
    "click_num": 5,
    "RT": 586,
    "action": 0,
    "reward": -2.3
  },
  {
    "phase": "TASK",
    "condition": "Cond4",
    "trial_num": 34,
    "trial_length": 6,
    "click_num": 6,
    "RT": 640,
    "action": 0,
    "reward": -2.3
  },
  {
    "phase": "TASK",
    "condition": "Cond4",
    "trial_num": 35,
    "trial_length": 6,
    "click_num": 1,
    "RT": 2093,
    "action": 1,
    "reward": -2.5
  },
  {
    "phase": "TASK",
    "condition": "Cond4",
    "trial_num": 35,
    "trial_length": 6,
    "click_num": 2,
    "RT": 1929,
    "action": 0,
    "reward": -2.5
  },
  {
    "phase": "TASK",
    "condition": "Cond4",
    "trial_num": 35,
    "trial_length": 6,
    "click_num": 3,
    "RT": 666,
    "action": 0,
    "reward": -2.5
  },
  {
    "phase": "TASK",
    "condition": "Cond4",
    "trial_num": 35,
    "trial_length": 6,
    "click_num": 4,
    "RT": 649,
    "action": 0,
    "reward": -2.5
  },
  {
    "phase": "TASK",
    "condition": "Cond4",
    "trial_num": 35,
    "trial_length": 6,
    "click_num": 5,
    "RT": 670,
    "action": 0,
    "reward": -2.5
  },
  {
    "phase": "TASK",
    "condition": "Cond4",
    "trial_num": 35,
    "trial_length": 6,
    "click_num": 6,
    "RT": 655,
    "action": 0,
    "reward": -2.5
  },
  {
    "phase": "TASK",
    "condition": "Cond4",
    "trial_num": 36,
    "trial_length": 8,
    "click_num": 1,
    "RT": 1446,
    "action": 1,
    "reward": -1.9
  },
  {
    "phase": "TASK",
    "condition": "Cond4",
    "trial_num": 36,
    "trial_length": 8,
    "click_num": 2,
    "RT": 1536,
    "action": 0,
    "reward": -1.9
  },
  {
    "phase": "TASK",
    "condition": "Cond4",
    "trial_num": 36,
    "trial_length": 8,
    "click_num": 3,
    "RT": 680,
    "action": 0,
    "reward": -1.9
  },
  {
    "phase": "TASK",
    "condition": "Cond4",
    "trial_num": 36,
    "trial_length": 8,
    "click_num": 4,
    "RT": 616,
    "action": 0,
    "reward": -1.9
  },
  {
    "phase": "TASK",
    "condition": "Cond4",
    "trial_num": 36,
    "trial_length": 8,
    "click_num": 5,
    "RT": 639,
    "action": 0,
    "reward": -1.9
  },
  {
    "phase": "TASK",
    "condition": "Cond4",
    "trial_num": 36,
    "trial_length": 8,
    "click_num": 6,
    "RT": 936,
    "action": 0,
    "reward": -1.9
  },
  {
    "phase": "TASK",
    "condition": "Cond4",
    "trial_num": 36,
    "trial_length": 8,
    "click_num": 7,
    "RT": 657,
    "action": 0,
    "reward": -1.9
  },
  {
    "phase": "TASK",
    "condition": "Cond4",
    "trial_num": 36,
    "trial_length": 8,
    "click_num": 8,
    "RT": 672,
    "action": 0,
    "reward": -1.9
  },
  {
    "phase": "TASK",
    "condition": "Cond4",
    "trial_num": 37,
    "trial_length": 6,
    "click_num": 1,
    "RT": 2825,
    "action": 1,
    "reward": -2.4
  },
  {
    "phase": "TASK",
    "condition": "Cond4",
    "trial_num": 37,
    "trial_length": 6,
    "click_num": 2,
    "RT": 2601,
    "action": 1,
    "reward": -3.6
  },
  {
    "phase": "TASK",
    "condition": "Cond4",
    "trial_num": 37,
    "trial_length": 6,
    "click_num": 3,
    "RT": 860,
    "action": 0,
    "reward": -2.4
  },
  {
    "phase": "TASK",
    "condition": "Cond4",
    "trial_num": 37,
    "trial_length": 6,
    "click_num": 4,
    "RT": 703,
    "action": 0,
    "reward": -2.4
  },
  {
    "phase": "TASK",
    "condition": "Cond4",
    "trial_num": 37,
    "trial_length": 6,
    "click_num": 5,
    "RT": 840,
    "action": 0,
    "reward": -2.4
  },
  {
    "phase": "TASK",
    "condition": "Cond4",
    "trial_num": 37,
    "trial_length": 6,
    "click_num": 6,
    "RT": 712,
    "action": 0,
    "reward": -2.4
  },
  {
    "phase": "TASK",
    "condition": "Cond4",
    "trial_num": 38,
    "trial_length": 10,
    "click_num": 1,
    "RT": 1294,
    "action": 1,
    "reward": -4
  },
  {
    "phase": "TASK",
    "condition": "Cond4",
    "trial_num": 38,
    "trial_length": 10,
    "click_num": 2,
    "RT": 1785,
    "action": 1,
    "reward": -2.7
  },
  {
    "phase": "TASK",
    "condition": "Cond4",
    "trial_num": 38,
    "trial_length": 10,
    "click_num": 3,
    "RT": 1530,
    "action": 1,
    "reward": -3
  },
  {
    "phase": "TASK",
    "condition": "Cond4",
    "trial_num": 38,
    "trial_length": 10,
    "click_num": 4,
    "RT": 1310,
    "action": 1,
    "reward": -2.1
  },
  {
    "phase": "TASK",
    "condition": "Cond4",
    "trial_num": 38,
    "trial_length": 10,
    "click_num": 5,
    "RT": 1155,
    "action": 0,
    "reward": -2.1
  },
  {
    "phase": "TASK",
    "condition": "Cond4",
    "trial_num": 38,
    "trial_length": 10,
    "click_num": 6,
    "RT": 1084,
    "action": 0,
    "reward": -2.1
  },
  {
    "phase": "TASK",
    "condition": "Cond4",
    "trial_num": 38,
    "trial_length": 10,
    "click_num": 7,
    "RT": 1232,
    "action": 0,
    "reward": -2.1
  },
  {
    "phase": "TASK",
    "condition": "Cond4",
    "trial_num": 38,
    "trial_length": 10,
    "click_num": 8,
    "RT": 889,
    "action": 0,
    "reward": -2.1
  },
  {
    "phase": "TASK",
    "condition": "Cond4",
    "trial_num": 38,
    "trial_length": 10,
    "click_num": 9,
    "RT": 1161,
    "action": 0,
    "reward": -2.1
  },
  {
    "phase": "TASK",
    "condition": "Cond4",
    "trial_num": 38,
    "trial_length": 10,
    "click_num": 10,
    "RT": 1486,
    "action": 0,
    "reward": -2.1
  },
  {
    "phase": "TASK",
    "condition": "Cond4",
    "trial_num": 39,
    "trial_length": 8,
    "click_num": 1,
    "RT": 1920,
    "action": 1,
    "reward": -3
  },
  {
    "phase": "TASK",
    "condition": "Cond4",
    "trial_num": 39,
    "trial_length": 8,
    "click_num": 2,
    "RT": 1588,
    "action": 1,
    "reward": -2.4
  },
  {
    "phase": "TASK",
    "condition": "Cond4",
    "trial_num": 39,
    "trial_length": 8,
    "click_num": 3,
    "RT": 1355,
    "action": 0,
    "reward": -2.4
  },
  {
    "phase": "TASK",
    "condition": "Cond4",
    "trial_num": 39,
    "trial_length": 8,
    "click_num": 4,
    "RT": 687,
    "action": 0,
    "reward": -2.4
  },
  {
    "phase": "TASK",
    "condition": "Cond4",
    "trial_num": 39,
    "trial_length": 8,
    "click_num": 5,
    "RT": 680,
    "action": 0,
    "reward": -2.4
  },
  {
    "phase": "TASK",
    "condition": "Cond4",
    "trial_num": 39,
    "trial_length": 8,
    "click_num": 6,
    "RT": 575,
    "action": 0,
    "reward": -2.4
  },
  {
    "phase": "TASK",
    "condition": "Cond4",
    "trial_num": 39,
    "trial_length": 8,
    "click_num": 7,
    "RT": 937,
    "action": 0,
    "reward": -2.4
  },
  {
    "phase": "TASK",
    "condition": "Cond4",
    "trial_num": 39,
    "trial_length": 8,
    "click_num": 8,
    "RT": 867,
    "action": 0,
    "reward": -2.4
  },
  {
    "phase": "TASK",
    "condition": "Cond4",
    "trial_num": 40,
    "trial_length": 5,
    "click_num": 1,
    "RT": 1494,
    "action": 1,
    "reward": -3.2
  },
  {
    "phase": "TASK",
    "condition": "Cond4",
    "trial_num": 40,
    "trial_length": 5,
    "click_num": 2,
    "RT": 1160,
    "action": 1,
    "reward": -2.7
  },
  {
    "phase": "TASK",
    "condition": "Cond4",
    "trial_num": 40,
    "trial_length": 5,
    "click_num": 3,
    "RT": 1128,
    "action": 1,
    "reward": -3.2
  },
  {
    "phase": "TASK",
    "condition": "Cond4",
    "trial_num": 40,
    "trial_length": 5,
    "click_num": 4,
    "RT": 1058,
    "action": 1,
    "reward": -3
  },
  {
    "phase": "TASK",
    "condition": "Cond4",
    "trial_num": 40,
    "trial_length": 5,
    "click_num": 5,
    "RT": 1346,
    "action": 1,
    "reward": -3.4
  },
  {
    "phase": "TASK",
    "condition": "Cond4",
    "trial_num": 41,
    "trial_length": 10,
    "click_num": 1,
    "RT": 1206,
    "action": 1,
    "reward": -2.7
  },
  {
    "phase": "TASK",
    "condition": "Cond4",
    "trial_num": 41,
    "trial_length": 10,
    "click_num": 2,
    "RT": 1176,
    "action": 1,
    "reward": -2.7
  },
  {
    "phase": "TASK",
    "condition": "Cond4",
    "trial_num": 41,
    "trial_length": 10,
    "click_num": 3,
    "RT": 936,
    "action": 1,
    "reward": -1.8
  },
  {
    "phase": "TASK",
    "condition": "Cond4",
    "trial_num": 41,
    "trial_length": 10,
    "click_num": 4,
    "RT": 1415,
    "action": 0,
    "reward": -1.8
  },
  {
    "phase": "TASK",
    "condition": "Cond4",
    "trial_num": 41,
    "trial_length": 10,
    "click_num": 5,
    "RT": 1128,
    "action": 0,
    "reward": -1.8
  },
  {
    "phase": "TASK",
    "condition": "Cond4",
    "trial_num": 41,
    "trial_length": 10,
    "click_num": 6,
    "RT": 768,
    "action": 0,
    "reward": -1.8
  },
  {
    "phase": "TASK",
    "condition": "Cond4",
    "trial_num": 41,
    "trial_length": 10,
    "click_num": 7,
    "RT": 1489,
    "action": 0,
    "reward": -1.8
  },
  {
    "phase": "TASK",
    "condition": "Cond4",
    "trial_num": 41,
    "trial_length": 10,
    "click_num": 8,
    "RT": 1584,
    "action": 0,
    "reward": -1.8
  },
  {
    "phase": "TASK",
    "condition": "Cond4",
    "trial_num": 41,
    "trial_length": 10,
    "click_num": 9,
    "RT": 1142,
    "action": 0,
    "reward": -1.8
  },
  {
    "phase": "TASK",
    "condition": "Cond4",
    "trial_num": 41,
    "trial_length": 10,
    "click_num": 10,
    "RT": 1058,
    "action": 0,
    "reward": -1.8
  },
  {
    "phase": "TASK",
    "condition": "Cond4",
    "trial_num": 42,
    "trial_length": 6,
    "click_num": 1,
    "RT": 1035,
    "action": 1,
    "reward": -2.7
  },
  {
    "phase": "TASK",
    "condition": "Cond4",
    "trial_num": 42,
    "trial_length": 6,
    "click_num": 2,
    "RT": 1283,
    "action": 1,
    "reward": -2.5
  },
  {
    "phase": "TASK",
    "condition": "Cond4",
    "trial_num": 42,
    "trial_length": 6,
    "click_num": 3,
    "RT": 1502,
    "action": 1,
    "reward": -3
  },
  {
    "phase": "TASK",
    "condition": "Cond4",
    "trial_num": 42,
    "trial_length": 6,
    "click_num": 4,
    "RT": 1319,
    "action": 1,
    "reward": -2.8
  },
  {
    "phase": "TASK",
    "condition": "Cond4",
    "trial_num": 42,
    "trial_length": 6,
    "click_num": 5,
    "RT": 967,
    "action": 0,
    "reward": -2.5
  },
  {
    "phase": "TASK",
    "condition": "Cond4",
    "trial_num": 42,
    "trial_length": 6,
    "click_num": 6,
    "RT": 1129,
    "action": 0,
    "reward": -2.5
  },
  {
    "phase": "TASK",
    "condition": "Cond4",
    "trial_num": 43,
    "trial_length": 5,
    "click_num": 1,
    "RT": 15362,
    "action": 1,
    "reward": -2.7
  },
  {
    "phase": "TASK",
    "condition": "Cond4",
    "trial_num": 43,
    "trial_length": 5,
    "click_num": 2,
    "RT": 2067,
    "action": 0,
    "reward": -2.7
  },
  {
    "phase": "TASK",
    "condition": "Cond4",
    "trial_num": 43,
    "trial_length": 5,
    "click_num": 3,
    "RT": 581,
    "action": 0,
    "reward": -2.7
  },
  {
    "phase": "TASK",
    "condition": "Cond4",
    "trial_num": 43,
    "trial_length": 5,
    "click_num": 4,
    "RT": 1007,
    "action": 0,
    "reward": -2.7
  },
  {
    "phase": "TASK",
    "condition": "Cond4",
    "trial_num": 43,
    "trial_length": 5,
    "click_num": 5,
    "RT": 577,
    "action": 0,
    "reward": -2.7
  },
  {
    "phase": "TASK",
    "condition": "Cond4",
    "trial_num": 44,
    "trial_length": 8,
    "click_num": 1,
    "RT": 1070,
    "action": 1,
    "reward": -2.8
  },
  {
    "phase": "TASK",
    "condition": "Cond4",
    "trial_num": 44,
    "trial_length": 8,
    "click_num": 2,
    "RT": 1336,
    "action": 1,
    "reward": -3.7
  },
  {
    "phase": "TASK",
    "condition": "Cond4",
    "trial_num": 44,
    "trial_length": 8,
    "click_num": 3,
    "RT": 927,
    "action": 1,
    "reward": -2.6
  },
  {
    "phase": "TASK",
    "condition": "Cond4",
    "trial_num": 44,
    "trial_length": 8,
    "click_num": 4,
    "RT": 808,
    "action": 1,
    "reward": -3.3
  },
  {
    "phase": "TASK",
    "condition": "Cond4",
    "trial_num": 44,
    "trial_length": 8,
    "click_num": 5,
    "RT": 1233,
    "action": 1,
    "reward": -2.1
  },
  {
    "phase": "TASK",
    "condition": "Cond4",
    "trial_num": 44,
    "trial_length": 8,
    "click_num": 6,
    "RT": 1320,
    "action": 0,
    "reward": -2.1
  },
  {
    "phase": "TASK",
    "condition": "Cond4",
    "trial_num": 44,
    "trial_length": 8,
    "click_num": 7,
    "RT": 1056,
    "action": 0,
    "reward": -2.1
  },
  {
    "phase": "TASK",
    "condition": "Cond4",
    "trial_num": 44,
    "trial_length": 8,
    "click_num": 8,
    "RT": 871,
    "action": 0,
    "reward": -2.1
  },
  {
    "phase": "TASK",
    "condition": "Cond4",
    "trial_num": 45,
    "trial_length": 9,
    "click_num": 1,
    "RT": 1240,
    "action": 1,
    "reward": -3.3
  },
  {
    "phase": "TASK",
    "condition": "Cond4",
    "trial_num": 45,
    "trial_length": 9,
    "click_num": 2,
    "RT": 1367,
    "action": 1,
    "reward": -3.3
  },
  {
    "phase": "TASK",
    "condition": "Cond4",
    "trial_num": 45,
    "trial_length": 9,
    "click_num": 3,
    "RT": 992,
    "action": 1,
    "reward": -2.6
  },
  {
    "phase": "TASK",
    "condition": "Cond4",
    "trial_num": 45,
    "trial_length": 9,
    "click_num": 4,
    "RT": 1200,
    "action": 1,
    "reward": -2.1
  },
  {
    "phase": "TASK",
    "condition": "Cond4",
    "trial_num": 45,
    "trial_length": 9,
    "click_num": 5,
    "RT": 1344,
    "action": 0,
    "reward": -2.1
  },
  {
    "phase": "TASK",
    "condition": "Cond4",
    "trial_num": 45,
    "trial_length": 9,
    "click_num": 6,
    "RT": 1033,
    "action": 0,
    "reward": -2.1
  },
  {
    "phase": "TASK",
    "condition": "Cond4",
    "trial_num": 45,
    "trial_length": 9,
    "click_num": 7,
    "RT": 671,
    "action": 0,
    "reward": -2.1
  },
  {
    "phase": "TASK",
    "condition": "Cond4",
    "trial_num": 45,
    "trial_length": 9,
    "click_num": 8,
    "RT": 641,
    "action": 0,
    "reward": -2.1
  },
  {
    "phase": "TASK",
    "condition": "Cond4",
    "trial_num": 45,
    "trial_length": 9,
    "click_num": 9,
    "RT": 904,
    "action": 0,
    "reward": -2.1
  },
  {
    "phase": "TASK",
    "condition": "Cond4",
    "trial_num": 46,
    "trial_length": 8,
    "click_num": 1,
    "RT": 4565,
    "action": 1,
    "reward": -3.8
  },
  {
    "phase": "TASK",
    "condition": "Cond4",
    "trial_num": 46,
    "trial_length": 8,
    "click_num": 2,
    "RT": 1448,
    "action": 1,
    "reward": -2.6
  },
  {
    "phase": "TASK",
    "condition": "Cond4",
    "trial_num": 46,
    "trial_length": 8,
    "click_num": 3,
    "RT": 697,
    "action": 1,
    "reward": -3.2
  },
  {
    "phase": "TASK",
    "condition": "Cond4",
    "trial_num": 46,
    "trial_length": 8,
    "click_num": 4,
    "RT": 902,
    "action": 1,
    "reward": -2.7
  },
  {
    "phase": "TASK",
    "condition": "Cond4",
    "trial_num": 46,
    "trial_length": 8,
    "click_num": 5,
    "RT": 825,
    "action": 1,
    "reward": -2.7
  },
  {
    "phase": "TASK",
    "condition": "Cond4",
    "trial_num": 46,
    "trial_length": 8,
    "click_num": 6,
    "RT": 1751,
    "action": 1,
    "reward": -3.1
  },
  {
    "phase": "TASK",
    "condition": "Cond4",
    "trial_num": 46,
    "trial_length": 8,
    "click_num": 7,
    "RT": 1464,
    "action": 0,
    "reward": -2.6
  },
  {
    "phase": "TASK",
    "condition": "Cond4",
    "trial_num": 46,
    "trial_length": 8,
    "click_num": 8,
    "RT": 704,
    "action": 0,
    "reward": -2.6
  },
  {
    "phase": "TASK",
    "condition": "Cond4",
    "trial_num": 47,
    "trial_length": 6,
    "click_num": 1,
    "RT": 1233,
    "action": 1,
    "reward": -2.7
  },
  {
    "phase": "TASK",
    "condition": "Cond4",
    "trial_num": 47,
    "trial_length": 6,
    "click_num": 2,
    "RT": 1287,
    "action": 1,
    "reward": -2.7
  },
  {
    "phase": "TASK",
    "condition": "Cond4",
    "trial_num": 47,
    "trial_length": 6,
    "click_num": 3,
    "RT": 1631,
    "action": 1,
    "reward": -3.4
  },
  {
    "phase": "TASK",
    "condition": "Cond4",
    "trial_num": 47,
    "trial_length": 6,
    "click_num": 4,
    "RT": 1199,
    "action": 0,
    "reward": -2.7
  },
  {
    "phase": "TASK",
    "condition": "Cond4",
    "trial_num": 47,
    "trial_length": 6,
    "click_num": 5,
    "RT": 784,
    "action": 1,
    "reward": -2.4
  },
  {
    "phase": "TASK",
    "condition": "Cond4",
    "trial_num": 47,
    "trial_length": 6,
    "click_num": 6,
    "RT": 1226,
    "action": 0,
    "reward": -2.4
  },
  {
    "phase": "TASK",
    "condition": "Cond4",
    "trial_num": 48,
    "trial_length": 10,
    "click_num": 1,
    "RT": 2818,
    "action": 1,
    "reward": -2.4
  },
  {
    "phase": "TASK",
    "condition": "Cond4",
    "trial_num": 48,
    "trial_length": 10,
    "click_num": 2,
    "RT": 1526,
    "action": 1,
    "reward": -2
  },
  {
    "phase": "TASK",
    "condition": "Cond4",
    "trial_num": 48,
    "trial_length": 10,
    "click_num": 3,
    "RT": 1070,
    "action": 1,
    "reward": -2.9
  },
  {
    "phase": "TASK",
    "condition": "Cond4",
    "trial_num": 48,
    "trial_length": 10,
    "click_num": 4,
    "RT": 880,
    "action": 0,
    "reward": -2
  },
  {
    "phase": "TASK",
    "condition": "Cond4",
    "trial_num": 48,
    "trial_length": 10,
    "click_num": 5,
    "RT": 683,
    "action": 0,
    "reward": -2
  },
  {
    "phase": "TASK",
    "condition": "Cond4",
    "trial_num": 48,
    "trial_length": 10,
    "click_num": 6,
    "RT": 803,
    "action": 0,
    "reward": -2
  },
  {
    "phase": "TASK",
    "condition": "Cond4",
    "trial_num": 48,
    "trial_length": 10,
    "click_num": 7,
    "RT": 612,
    "action": 0,
    "reward": -2
  },
  {
    "phase": "TASK",
    "condition": "Cond4",
    "trial_num": 48,
    "trial_length": 10,
    "click_num": 8,
    "RT": 575,
    "action": 0,
    "reward": -2
  },
  {
    "phase": "TASK",
    "condition": "Cond4",
    "trial_num": 48,
    "trial_length": 10,
    "click_num": 9,
    "RT": 911,
    "action": 0,
    "reward": -2
  },
  {
    "phase": "TASK",
    "condition": "Cond4",
    "trial_num": 48,
    "trial_length": 10,
    "click_num": 10,
    "RT": 736,
    "action": 0,
    "reward": -2
  },
  {
    "phase": "TASK",
    "condition": "Cond4",
    "trial_num": 49,
    "trial_length": 8,
    "click_num": 1,
    "RT": 1036,
    "action": 1,
    "reward": -2.6
  },
  {
    "phase": "TASK",
    "condition": "Cond4",
    "trial_num": 49,
    "trial_length": 8,
    "click_num": 2,
    "RT": 1159,
    "action": 1,
    "reward": -4
  },
  {
    "phase": "TASK",
    "condition": "Cond4",
    "trial_num": 49,
    "trial_length": 8,
    "click_num": 3,
    "RT": 887,
    "action": 1,
    "reward": -2.6
  },
  {
    "phase": "TASK",
    "condition": "Cond4",
    "trial_num": 49,
    "trial_length": 8,
    "click_num": 4,
    "RT": 897,
    "action": 1,
    "reward": -2.5
  },
  {
    "phase": "TASK",
    "condition": "Cond4",
    "trial_num": 49,
    "trial_length": 8,
    "click_num": 5,
    "RT": 1080,
    "action": 1,
    "reward": -2.7
  },
  {
    "phase": "TASK",
    "condition": "Cond4",
    "trial_num": 49,
    "trial_length": 8,
    "click_num": 6,
    "RT": 1010,
    "action": 1,
    "reward": -1.6
  },
  {
    "phase": "TASK",
    "condition": "Cond4",
    "trial_num": 49,
    "trial_length": 8,
    "click_num": 7,
    "RT": 1110,
    "action": 0,
    "reward": -1.6
  },
  {
    "phase": "TASK",
    "condition": "Cond4",
    "trial_num": 49,
    "trial_length": 8,
    "click_num": 8,
    "RT": 879,
    "action": 0,
    "reward": -1.6
  },
  {
    "phase": "TASK",
    "condition": "Cond4",
    "trial_num": 50,
    "trial_length": 5,
    "click_num": 1,
    "RT": 3223,
    "action": 1,
    "reward": -2.9
  },
  {
    "phase": "TASK",
    "condition": "Cond4",
    "trial_num": 50,
    "trial_length": 5,
    "click_num": 2,
    "RT": 1098,
    "action": 1,
    "reward": -3.2
  },
  {
    "phase": "TASK",
    "condition": "Cond4",
    "trial_num": 50,
    "trial_length": 5,
    "click_num": 3,
    "RT": 926,
    "action": 1,
    "reward": -3.8
  },
  {
    "phase": "TASK",
    "condition": "Cond4",
    "trial_num": 50,
    "trial_length": 5,
    "click_num": 4,
    "RT": 1750,
    "action": 0,
    "reward": -2.9
  },
  {
    "phase": "TASK",
    "condition": "Cond4",
    "trial_num": 50,
    "trial_length": 5,
    "click_num": 5,
    "RT": 692,
    "action": 0,
    "reward": -2.9
  },
  {
    "phase": "TASK",
    "condition": "Cond4",
    "trial_num": 51,
    "trial_length": 10,
    "click_num": 1,
    "RT": 1038,
    "action": 1,
    "reward": -2.7
  },
  {
    "phase": "TASK",
    "condition": "Cond4",
    "trial_num": 51,
    "trial_length": 10,
    "click_num": 2,
    "RT": 2047,
    "action": 1,
    "reward": -3.1
  },
  {
    "phase": "TASK",
    "condition": "Cond4",
    "trial_num": 51,
    "trial_length": 10,
    "click_num": 3,
    "RT": 1011,
    "action": 1,
    "reward": -3.3
  },
  {
    "phase": "TASK",
    "condition": "Cond4",
    "trial_num": 51,
    "trial_length": 10,
    "click_num": 4,
    "RT": 1046,
    "action": 1,
    "reward": -2.5
  },
  {
    "phase": "TASK",
    "condition": "Cond4",
    "trial_num": 51,
    "trial_length": 10,
    "click_num": 5,
    "RT": 920,
    "action": 0,
    "reward": -2.5
  },
  {
    "phase": "TASK",
    "condition": "Cond4",
    "trial_num": 51,
    "trial_length": 10,
    "click_num": 6,
    "RT": 1063,
    "action": 0,
    "reward": -2.5
  },
  {
    "phase": "TASK",
    "condition": "Cond4",
    "trial_num": 51,
    "trial_length": 10,
    "click_num": 7,
    "RT": 680,
    "action": 1,
    "reward": -3.7
  },
  {
    "phase": "TASK",
    "condition": "Cond4",
    "trial_num": 51,
    "trial_length": 10,
    "click_num": 8,
    "RT": 944,
    "action": 0,
    "reward": -2.5
  },
  {
    "phase": "TASK",
    "condition": "Cond4",
    "trial_num": 51,
    "trial_length": 10,
    "click_num": 9,
    "RT": 696,
    "action": 0,
    "reward": -2.5
  },
  {
    "phase": "TASK",
    "condition": "Cond4",
    "trial_num": 51,
    "trial_length": 10,
    "click_num": 10,
    "RT": 576,
    "action": 0,
    "reward": -2.5
  },
  {
    "phase": "TASK",
    "condition": "Cond4",
    "trial_num": 52,
    "trial_length": 5,
    "click_num": 1,
    "RT": 1094,
    "action": 1,
    "reward": -2.1
  },
  {
    "phase": "TASK",
    "condition": "Cond4",
    "trial_num": 52,
    "trial_length": 5,
    "click_num": 2,
    "RT": 1496,
    "action": 0,
    "reward": -2.1
  },
  {
    "phase": "TASK",
    "condition": "Cond4",
    "trial_num": 52,
    "trial_length": 5,
    "click_num": 3,
    "RT": 600,
    "action": 0,
    "reward": -2.1
  },
  {
    "phase": "TASK",
    "condition": "Cond4",
    "trial_num": 52,
    "trial_length": 5,
    "click_num": 4,
    "RT": 635,
    "action": 0,
    "reward": -2.1
  },
  {
    "phase": "TASK",
    "condition": "Cond4",
    "trial_num": 52,
    "trial_length": 5,
    "click_num": 5,
    "RT": 608,
    "action": 0,
    "reward": -2.1
  },
  {
    "phase": "TASK",
    "condition": "Cond4",
    "trial_num": 53,
    "trial_length": 7,
    "click_num": 1,
    "RT": 1190,
    "action": 1,
    "reward": -3.4
  },
  {
    "phase": "TASK",
    "condition": "Cond4",
    "trial_num": 53,
    "trial_length": 7,
    "click_num": 2,
    "RT": 987,
    "action": 1,
    "reward": -3.6
  },
  {
    "phase": "TASK",
    "condition": "Cond4",
    "trial_num": 53,
    "trial_length": 7,
    "click_num": 3,
    "RT": 813,
    "action": 1,
    "reward": -3.2
  },
  {
    "phase": "TASK",
    "condition": "Cond4",
    "trial_num": 53,
    "trial_length": 7,
    "click_num": 4,
    "RT": 760,
    "action": 1,
    "reward": -2.4
  },
  {
    "phase": "TASK",
    "condition": "Cond4",
    "trial_num": 53,
    "trial_length": 7,
    "click_num": 5,
    "RT": 1112,
    "action": 0,
    "reward": -2.4
  },
  {
    "phase": "TASK",
    "condition": "Cond4",
    "trial_num": 53,
    "trial_length": 7,
    "click_num": 6,
    "RT": 688,
    "action": 0,
    "reward": -2.4
  },
  {
    "phase": "TASK",
    "condition": "Cond4",
    "trial_num": 53,
    "trial_length": 7,
    "click_num": 7,
    "RT": 695,
    "action": 0,
    "reward": -2.4
  },
  {
    "phase": "TASK",
    "condition": "Cond4",
    "trial_num": 54,
    "trial_length": 5,
    "click_num": 1,
    "RT": 1031,
    "action": 1,
    "reward": -3.1
  },
  {
    "phase": "TASK",
    "condition": "Cond4",
    "trial_num": 54,
    "trial_length": 5,
    "click_num": 2,
    "RT": 1097,
    "action": 1,
    "reward": -2.3
  },
  {
    "phase": "TASK",
    "condition": "Cond4",
    "trial_num": 54,
    "trial_length": 5,
    "click_num": 3,
    "RT": 1502,
    "action": 0,
    "reward": -2.3
  },
  {
    "phase": "TASK",
    "condition": "Cond4",
    "trial_num": 54,
    "trial_length": 5,
    "click_num": 4,
    "RT": 795,
    "action": 0,
    "reward": -2.3
  },
  {
    "phase": "TASK",
    "condition": "Cond4",
    "trial_num": 54,
    "trial_length": 5,
    "click_num": 5,
    "RT": 638,
    "action": 0,
    "reward": -2.3
  },
  {
    "phase": "TASK",
    "condition": "Cond4",
    "trial_num": 55,
    "trial_length": 9,
    "click_num": 1,
    "RT": 1615,
    "action": 1,
    "reward": -3.2
  },
  {
    "phase": "TASK",
    "condition": "Cond4",
    "trial_num": 55,
    "trial_length": 9,
    "click_num": 2,
    "RT": 1456,
    "action": 1,
    "reward": -3
  },
  {
    "phase": "TASK",
    "condition": "Cond4",
    "trial_num": 55,
    "trial_length": 9,
    "click_num": 3,
    "RT": 695,
    "action": 1,
    "reward": -3
  },
  {
    "phase": "TASK",
    "condition": "Cond4",
    "trial_num": 55,
    "trial_length": 9,
    "click_num": 4,
    "RT": 824,
    "action": 1,
    "reward": -2.9
  },
  {
    "phase": "TASK",
    "condition": "Cond4",
    "trial_num": 55,
    "trial_length": 9,
    "click_num": 5,
    "RT": 792,
    "action": 1,
    "reward": -3.5
  },
  {
    "phase": "TASK",
    "condition": "Cond4",
    "trial_num": 55,
    "trial_length": 9,
    "click_num": 6,
    "RT": 921,
    "action": 1,
    "reward": -2.6
  },
  {
    "phase": "TASK",
    "condition": "Cond4",
    "trial_num": 55,
    "trial_length": 9,
    "click_num": 7,
    "RT": 2096,
    "action": 0,
    "reward": -2.6
  },
  {
    "phase": "TASK",
    "condition": "Cond4",
    "trial_num": 55,
    "trial_length": 9,
    "click_num": 8,
    "RT": 678,
    "action": 0,
    "reward": -2.6
  },
  {
    "phase": "TASK",
    "condition": "Cond4",
    "trial_num": 55,
    "trial_length": 9,
    "click_num": 9,
    "RT": 659,
    "action": 0,
    "reward": -2.6
  },
  {
    "phase": "TASK",
    "condition": "Cond4",
    "trial_num": 56,
    "trial_length": 7,
    "click_num": 1,
    "RT": 2542,
    "action": 1,
    "reward": -2.3
  },
  {
    "phase": "TASK",
    "condition": "Cond4",
    "trial_num": 56,
    "trial_length": 7,
    "click_num": 2,
    "RT": 3063,
    "action": 0,
    "reward": -2.3
  },
  {
    "phase": "TASK",
    "condition": "Cond4",
    "trial_num": 56,
    "trial_length": 7,
    "click_num": 3,
    "RT": 1222,
    "action": 0,
    "reward": -2.3
  },
  {
    "phase": "TASK",
    "condition": "Cond4",
    "trial_num": 56,
    "trial_length": 7,
    "click_num": 4,
    "RT": 624,
    "action": 0,
    "reward": -2.3
  },
  {
    "phase": "TASK",
    "condition": "Cond4",
    "trial_num": 56,
    "trial_length": 7,
    "click_num": 5,
    "RT": 721,
    "action": 0,
    "reward": -2.3
  },
  {
    "phase": "TASK",
    "condition": "Cond4",
    "trial_num": 56,
    "trial_length": 7,
    "click_num": 6,
    "RT": 712,
    "action": 0,
    "reward": -2.3
  },
  {
    "phase": "TASK",
    "condition": "Cond4",
    "trial_num": 56,
    "trial_length": 7,
    "click_num": 7,
    "RT": 672,
    "action": 0,
    "reward": -2.3
  },
  {
    "phase": "TASK",
    "condition": "Cond4",
    "trial_num": 57,
    "trial_length": 7,
    "click_num": 1,
    "RT": 1407,
    "action": 1,
    "reward": -3.4
  },
  {
    "phase": "TASK",
    "condition": "Cond4",
    "trial_num": 57,
    "trial_length": 7,
    "click_num": 2,
    "RT": 1545,
    "action": 1,
    "reward": -2.7
  },
  {
    "phase": "TASK",
    "condition": "Cond4",
    "trial_num": 57,
    "trial_length": 7,
    "click_num": 3,
    "RT": 1062,
    "action": 1,
    "reward": -2.3
  },
  {
    "phase": "TASK",
    "condition": "Cond4",
    "trial_num": 57,
    "trial_length": 7,
    "click_num": 4,
    "RT": 1184,
    "action": 0,
    "reward": -2.3
  },
  {
    "phase": "TASK",
    "condition": "Cond4",
    "trial_num": 57,
    "trial_length": 7,
    "click_num": 5,
    "RT": 977,
    "action": 0,
    "reward": -2.3
  },
  {
    "phase": "TASK",
    "condition": "Cond4",
    "trial_num": 57,
    "trial_length": 7,
    "click_num": 6,
    "RT": 593,
    "action": 0,
    "reward": -2.3
  },
  {
    "phase": "TASK",
    "condition": "Cond4",
    "trial_num": 57,
    "trial_length": 7,
    "click_num": 7,
    "RT": 671,
    "action": 0,
    "reward": -2.3
  },
  {
    "phase": "TASK",
    "condition": "Cond4",
    "trial_num": 58,
    "trial_length": 5,
    "click_num": 1,
    "RT": 8358,
    "action": 1,
    "reward": -3.1
  },
  {
    "phase": "TASK",
    "condition": "Cond4",
    "trial_num": 58,
    "trial_length": 5,
    "click_num": 2,
    "RT": 1136,
    "action": 1,
    "reward": -2.2
  },
  {
    "phase": "TASK",
    "condition": "Cond4",
    "trial_num": 58,
    "trial_length": 5,
    "click_num": 3,
    "RT": 1239,
    "action": 0,
    "reward": -2.2
  },
  {
    "phase": "TASK",
    "condition": "Cond4",
    "trial_num": 58,
    "trial_length": 5,
    "click_num": 4,
    "RT": 960,
    "action": 0,
    "reward": -2.2
  },
  {
    "phase": "TASK",
    "condition": "Cond4",
    "trial_num": 58,
    "trial_length": 5,
    "click_num": 5,
    "RT": 600,
    "action": 0,
    "reward": -2.2
  },
  {
    "phase": "TASK",
    "condition": "Cond4",
    "trial_num": 59,
    "trial_length": 9,
    "click_num": 1,
    "RT": 1033,
    "action": 1,
    "reward": -2.9
  },
  {
    "phase": "TASK",
    "condition": "Cond4",
    "trial_num": 59,
    "trial_length": 9,
    "click_num": 2,
    "RT": 1166,
    "action": 1,
    "reward": -4.1
  },
  {
    "phase": "TASK",
    "condition": "Cond4",
    "trial_num": 59,
    "trial_length": 9,
    "click_num": 3,
    "RT": 624,
    "action": 1,
    "reward": -3
  },
  {
    "phase": "TASK",
    "condition": "Cond4",
    "trial_num": 59,
    "trial_length": 9,
    "click_num": 4,
    "RT": 727,
    "action": 1,
    "reward": -2.2
  },
  {
    "phase": "TASK",
    "condition": "Cond4",
    "trial_num": 59,
    "trial_length": 9,
    "click_num": 5,
    "RT": 1208,
    "action": 0,
    "reward": -2.2
  },
  {
    "phase": "TASK",
    "condition": "Cond4",
    "trial_num": 59,
    "trial_length": 9,
    "click_num": 6,
    "RT": 536,
    "action": 0,
    "reward": -2.2
  },
  {
    "phase": "TASK",
    "condition": "Cond4",
    "trial_num": 59,
    "trial_length": 9,
    "click_num": 7,
    "RT": 540,
    "action": 0,
    "reward": -2.2
  },
  {
    "phase": "TASK",
    "condition": "Cond4",
    "trial_num": 59,
    "trial_length": 9,
    "click_num": 8,
    "RT": 638,
    "action": 0,
    "reward": -2.2
  },
  {
    "phase": "TASK",
    "condition": "Cond4",
    "trial_num": 59,
    "trial_length": 9,
    "click_num": 9,
    "RT": 606,
    "action": 0,
    "reward": -2.2
  },
  {
    "phase": "TASK",
    "condition": "Cond4",
    "trial_num": 60,
    "trial_length": 9,
    "click_num": 1,
    "RT": 3736,
    "action": 1,
    "reward": -3.1
  },
  {
    "phase": "TASK",
    "condition": "Cond4",
    "trial_num": 60,
    "trial_length": 9,
    "click_num": 2,
    "RT": 1070,
    "action": 1,
    "reward": -3.1
  },
  {
    "phase": "TASK",
    "condition": "Cond4",
    "trial_num": 60,
    "trial_length": 9,
    "click_num": 3,
    "RT": 1095,
    "action": 1,
    "reward": -2.8
  },
  {
    "phase": "TASK",
    "condition": "Cond4",
    "trial_num": 60,
    "trial_length": 9,
    "click_num": 4,
    "RT": 1002,
    "action": 1,
    "reward": -2.6
  },
  {
    "phase": "TASK",
    "condition": "Cond4",
    "trial_num": 60,
    "trial_length": 9,
    "click_num": 5,
    "RT": 896,
    "action": 1,
    "reward": -2.2
  },
  {
    "phase": "TASK",
    "condition": "Cond4",
    "trial_num": 60,
    "trial_length": 9,
    "click_num": 6,
    "RT": 1166,
    "action": 0,
    "reward": -2.2
  },
  {
    "phase": "TASK",
    "condition": "Cond4",
    "trial_num": 60,
    "trial_length": 9,
    "click_num": 7,
    "RT": 649,
    "action": 0,
    "reward": -2.2
  },
  {
    "phase": "TASK",
    "condition": "Cond4",
    "trial_num": 60,
    "trial_length": 9,
    "click_num": 8,
    "RT": 1040,
    "action": 0,
    "reward": -2.2
  },
  {
    "phase": "TASK",
    "condition": "Cond4",
    "trial_num": 60,
    "trial_length": 9,
    "click_num": 9,
    "RT": 720,
    "action": 0,
    "reward": -2.2
  },
  {
    "phase": "TASK",
    "condition": "Cond4",
    "trial_num": 61,
    "trial_length": 7,
    "click_num": 1,
    "RT": 1005,
    "action": 1,
    "reward": -3.3
  },
  {
    "phase": "TASK",
    "condition": "Cond4",
    "trial_num": 61,
    "trial_length": 7,
    "click_num": 2,
    "RT": 1267,
    "action": 1,
    "reward": -2.1
  },
  {
    "phase": "TASK",
    "condition": "Cond4",
    "trial_num": 61,
    "trial_length": 7,
    "click_num": 3,
    "RT": 2279,
    "action": 0,
    "reward": -2.1
  },
  {
    "phase": "TASK",
    "condition": "Cond4",
    "trial_num": 61,
    "trial_length": 7,
    "click_num": 4,
    "RT": 2889,
    "action": 0,
    "reward": -2.1
  },
  {
    "phase": "TASK",
    "condition": "Cond4",
    "trial_num": 61,
    "trial_length": 7,
    "click_num": 5,
    "RT": 808,
    "action": 0,
    "reward": -2.1
  },
  {
    "phase": "TASK",
    "condition": "Cond4",
    "trial_num": 61,
    "trial_length": 7,
    "click_num": 6,
    "RT": 976,
    "action": 0,
    "reward": -2.1
  },
  {
    "phase": "TASK",
    "condition": "Cond4",
    "trial_num": 61,
    "trial_length": 7,
    "click_num": 7,
    "RT": 855,
    "action": 0,
    "reward": -2.1
  },
  {
    "phase": "TASK",
    "condition": "Cond4",
    "trial_num": 62,
    "trial_length": 7,
    "click_num": 1,
    "RT": 1099,
    "action": 1,
    "reward": -3.4
  },
  {
    "phase": "TASK",
    "condition": "Cond4",
    "trial_num": 62,
    "trial_length": 7,
    "click_num": 2,
    "RT": 1312,
    "action": 1,
    "reward": -1.5
  },
  {
    "phase": "TASK",
    "condition": "Cond4",
    "trial_num": 62,
    "trial_length": 7,
    "click_num": 3,
    "RT": 1307,
    "action": 0,
    "reward": -1.5
  },
  {
    "phase": "TASK",
    "condition": "Cond4",
    "trial_num": 62,
    "trial_length": 7,
    "click_num": 4,
    "RT": 911,
    "action": 0,
    "reward": -1.5
  },
  {
    "phase": "TASK",
    "condition": "Cond4",
    "trial_num": 62,
    "trial_length": 7,
    "click_num": 5,
    "RT": 2159,
    "action": 0,
    "reward": -1.5
  },
  {
    "phase": "TASK",
    "condition": "Cond4",
    "trial_num": 62,
    "trial_length": 7,
    "click_num": 6,
    "RT": 727,
    "action": 0,
    "reward": -1.5
  },
  {
    "phase": "TASK",
    "condition": "Cond4",
    "trial_num": 62,
    "trial_length": 7,
    "click_num": 7,
    "RT": 715,
    "action": 0,
    "reward": -1.5
  },
  {
    "phase": "TASK",
    "condition": "Cond4",
    "trial_num": 63,
    "trial_length": 8,
    "click_num": 1,
    "RT": 1738,
    "action": 1,
    "reward": -3.3
  },
  {
    "phase": "TASK",
    "condition": "Cond4",
    "trial_num": 63,
    "trial_length": 8,
    "click_num": 2,
    "RT": 1248,
    "action": 1,
    "reward": -2.8
  },
  {
    "phase": "TASK",
    "condition": "Cond4",
    "trial_num": 63,
    "trial_length": 8,
    "click_num": 3,
    "RT": 1271,
    "action": 1,
    "reward": -2.5
  },
  {
    "phase": "TASK",
    "condition": "Cond4",
    "trial_num": 63,
    "trial_length": 8,
    "click_num": 4,
    "RT": 1072,
    "action": 1,
    "reward": -4.4
  },
  {
    "phase": "TASK",
    "condition": "Cond4",
    "trial_num": 63,
    "trial_length": 8,
    "click_num": 5,
    "RT": 1336,
    "action": 1,
    "reward": -2.5
  },
  {
    "phase": "TASK",
    "condition": "Cond4",
    "trial_num": 63,
    "trial_length": 8,
    "click_num": 6,
    "RT": 1272,
    "action": 1,
    "reward": -3.4
  },
  {
    "phase": "TASK",
    "condition": "Cond4",
    "trial_num": 63,
    "trial_length": 8,
    "click_num": 7,
    "RT": 1880,
    "action": 0,
    "reward": -2.5
  },
  {
    "phase": "TASK",
    "condition": "Cond4",
    "trial_num": 63,
    "trial_length": 8,
    "click_num": 8,
    "RT": 633,
    "action": 0,
    "reward": -2.5
  },
  {
    "phase": "TASK",
    "condition": "Cond4",
    "trial_num": 64,
    "trial_length": 10,
    "click_num": 1,
    "RT": 1215,
    "action": 1,
    "reward": -2.9
  },
  {
    "phase": "TASK",
    "condition": "Cond4",
    "trial_num": 64,
    "trial_length": 10,
    "click_num": 2,
    "RT": 1063,
    "action": 1,
    "reward": -3.3
  },
  {
    "phase": "TASK",
    "condition": "Cond4",
    "trial_num": 64,
    "trial_length": 10,
    "click_num": 3,
    "RT": 1151,
    "action": 1,
    "reward": -2.1
  },
  {
    "phase": "TASK",
    "condition": "Cond4",
    "trial_num": 64,
    "trial_length": 10,
    "click_num": 4,
    "RT": 1257,
    "action": 1,
    "reward": -3
  },
  {
    "phase": "TASK",
    "condition": "Cond4",
    "trial_num": 64,
    "trial_length": 10,
    "click_num": 5,
    "RT": 1112,
    "action": 1,
    "reward": -3.2
  },
  {
    "phase": "TASK",
    "condition": "Cond4",
    "trial_num": 64,
    "trial_length": 10,
    "click_num": 6,
    "RT": 960,
    "action": 0,
    "reward": -2.1
  },
  {
    "phase": "TASK",
    "condition": "Cond4",
    "trial_num": 64,
    "trial_length": 10,
    "click_num": 7,
    "RT": 591,
    "action": 0,
    "reward": -2.1
  },
  {
    "phase": "TASK",
    "condition": "Cond4",
    "trial_num": 64,
    "trial_length": 10,
    "click_num": 8,
    "RT": 617,
    "action": 0,
    "reward": -2.1
  },
  {
    "phase": "TASK",
    "condition": "Cond4",
    "trial_num": 64,
    "trial_length": 10,
    "click_num": 9,
    "RT": 631,
    "action": 0,
    "reward": -2.1
  },
  {
    "phase": "TASK",
    "condition": "Cond4",
    "trial_num": 64,
    "trial_length": 10,
    "click_num": 10,
    "RT": 914,
    "action": 0,
    "reward": -2.1
  },
  {
    "phase": "TASK",
    "condition": "Cond4",
    "trial_num": 65,
    "trial_length": 5,
    "click_num": 1,
    "RT": 1300,
    "action": 1,
    "reward": -3
  },
  {
    "phase": "TASK",
    "condition": "Cond4",
    "trial_num": 65,
    "trial_length": 5,
    "click_num": 2,
    "RT": 1064,
    "action": 1,
    "reward": -2.5
  },
  {
    "phase": "TASK",
    "condition": "Cond4",
    "trial_num": 65,
    "trial_length": 5,
    "click_num": 3,
    "RT": 883,
    "action": 1,
    "reward": -2.5
  },
  {
    "phase": "TASK",
    "condition": "Cond4",
    "trial_num": 65,
    "trial_length": 5,
    "click_num": 4,
    "RT": 782,
    "action": 0,
    "reward": -2.5
  },
  {
    "phase": "TASK",
    "condition": "Cond4",
    "trial_num": 65,
    "trial_length": 5,
    "click_num": 5,
    "RT": 1543,
    "action": 0,
    "reward": -2.5
  },
  {
    "phase": "TASK",
    "condition": "Cond4",
    "trial_num": 66,
    "trial_length": 9,
    "click_num": 1,
    "RT": 998,
    "action": 1,
    "reward": -1.8
  },
  {
    "phase": "TASK",
    "condition": "Cond4",
    "trial_num": 66,
    "trial_length": 9,
    "click_num": 2,
    "RT": 1236,
    "action": 0,
    "reward": -1.8
  },
  {
    "phase": "TASK",
    "condition": "Cond4",
    "trial_num": 66,
    "trial_length": 9,
    "click_num": 3,
    "RT": 596,
    "action": 0,
    "reward": -1.8
  },
  {
    "phase": "TASK",
    "condition": "Cond4",
    "trial_num": 66,
    "trial_length": 9,
    "click_num": 4,
    "RT": 593,
    "action": 0,
    "reward": -1.8
  },
  {
    "phase": "TASK",
    "condition": "Cond4",
    "trial_num": 66,
    "trial_length": 9,
    "click_num": 5,
    "RT": 1271,
    "action": 0,
    "reward": -1.8
  },
  {
    "phase": "TASK",
    "condition": "Cond4",
    "trial_num": 66,
    "trial_length": 9,
    "click_num": 6,
    "RT": 728,
    "action": 0,
    "reward": -1.8
  },
  {
    "phase": "TASK",
    "condition": "Cond4",
    "trial_num": 66,
    "trial_length": 9,
    "click_num": 7,
    "RT": 673,
    "action": 0,
    "reward": -1.8
  },
  {
    "phase": "TASK",
    "condition": "Cond4",
    "trial_num": 66,
    "trial_length": 9,
    "click_num": 8,
    "RT": 760,
    "action": 0,
    "reward": -1.8
  },
  {
    "phase": "TASK",
    "condition": "Cond4",
    "trial_num": 66,
    "trial_length": 9,
    "click_num": 9,
    "RT": 664,
    "action": 0,
    "reward": -1.8
  },
  {
    "phase": "TASK",
    "condition": "Cond4",
    "trial_num": 67,
    "trial_length": 6,
    "click_num": 1,
    "RT": 1654,
    "action": 1,
    "reward": -3.6
  },
  {
    "phase": "TASK",
    "condition": "Cond4",
    "trial_num": 67,
    "trial_length": 6,
    "click_num": 2,
    "RT": 1376,
    "action": 1,
    "reward": -2.7
  },
  {
    "phase": "TASK",
    "condition": "Cond4",
    "trial_num": 67,
    "trial_length": 6,
    "click_num": 3,
    "RT": 664,
    "action": 1,
    "reward": -3.2
  },
  {
    "phase": "TASK",
    "condition": "Cond4",
    "trial_num": 67,
    "trial_length": 6,
    "click_num": 4,
    "RT": 2175,
    "action": 1,
    "reward": -3.3
  },
  {
    "phase": "TASK",
    "condition": "Cond4",
    "trial_num": 67,
    "trial_length": 6,
    "click_num": 5,
    "RT": 1011,
    "action": 1,
    "reward": -3.3
  },
  {
    "phase": "TASK",
    "condition": "Cond4",
    "trial_num": 67,
    "trial_length": 6,
    "click_num": 6,
    "RT": 1486,
    "action": 1,
    "reward": -3.3
  },
  {
    "phase": "TASK",
    "condition": "Cond4",
    "trial_num": 68,
    "trial_length": 5,
    "click_num": 1,
    "RT": 1111,
    "action": 1,
    "reward": -2.8
  },
  {
    "phase": "TASK",
    "condition": "Cond4",
    "trial_num": 68,
    "trial_length": 5,
    "click_num": 2,
    "RT": 1035,
    "action": 1,
    "reward": -3.2
  },
  {
    "phase": "TASK",
    "condition": "Cond4",
    "trial_num": 68,
    "trial_length": 5,
    "click_num": 3,
    "RT": 918,
    "action": 1,
    "reward": -2.9
  },
  {
    "phase": "TASK",
    "condition": "Cond4",
    "trial_num": 68,
    "trial_length": 5,
    "click_num": 4,
    "RT": 718,
    "action": 0,
    "reward": -2.8
  },
  {
    "phase": "TASK",
    "condition": "Cond4",
    "trial_num": 68,
    "trial_length": 5,
    "click_num": 5,
    "RT": 580,
    "action": 0,
    "reward": -2.8
  },
  {
    "phase": "TASK",
    "condition": "Cond4",
    "trial_num": 69,
    "trial_length": 7,
    "click_num": 1,
    "RT": 1608,
    "action": 1,
    "reward": -1.3
  },
  {
    "phase": "TASK",
    "condition": "Cond4",
    "trial_num": 69,
    "trial_length": 7,
    "click_num": 2,
    "RT": 1879,
    "action": 0,
    "reward": -1.3
  },
  {
    "phase": "TASK",
    "condition": "Cond4",
    "trial_num": 69,
    "trial_length": 7,
    "click_num": 3,
    "RT": 626,
    "action": 0,
    "reward": -1.3
  },
  {
    "phase": "TASK",
    "condition": "Cond4",
    "trial_num": 69,
    "trial_length": 7,
    "click_num": 4,
    "RT": 1238,
    "action": 0,
    "reward": -1.3
  },
  {
    "phase": "TASK",
    "condition": "Cond4",
    "trial_num": 69,
    "trial_length": 7,
    "click_num": 5,
    "RT": 1554,
    "action": 0,
    "reward": -1.3
  },
  {
    "phase": "TASK",
    "condition": "Cond4",
    "trial_num": 69,
    "trial_length": 7,
    "click_num": 6,
    "RT": 866,
    "action": 0,
    "reward": -1.3
  },
  {
    "phase": "TASK",
    "condition": "Cond4",
    "trial_num": 69,
    "trial_length": 7,
    "click_num": 7,
    "RT": 709,
    "action": 0,
    "reward": -1.3
  },
  {
    "phase": "TASK",
    "condition": "Cond4",
    "trial_num": 70,
    "trial_length": 10,
    "click_num": 1,
    "RT": 1897,
    "action": 1,
    "reward": -3.8
  },
  {
    "phase": "TASK",
    "condition": "Cond4",
    "trial_num": 70,
    "trial_length": 10,
    "click_num": 2,
    "RT": 2029,
    "action": 1,
    "reward": -1.7
  },
  {
    "phase": "TASK",
    "condition": "Cond4",
    "trial_num": 70,
    "trial_length": 10,
    "click_num": 3,
    "RT": 1224,
    "action": 0,
    "reward": -1.7
  },
  {
    "phase": "TASK",
    "condition": "Cond4",
    "trial_num": 70,
    "trial_length": 10,
    "click_num": 4,
    "RT": 610,
    "action": 0,
    "reward": -1.7
  },
  {
    "phase": "TASK",
    "condition": "Cond4",
    "trial_num": 70,
    "trial_length": 10,
    "click_num": 5,
    "RT": 537,
    "action": 0,
    "reward": -1.7
  },
  {
    "phase": "TASK",
    "condition": "Cond4",
    "trial_num": 70,
    "trial_length": 10,
    "click_num": 6,
    "RT": 599,
    "action": 0,
    "reward": -1.7
  },
  {
    "phase": "TASK",
    "condition": "Cond4",
    "trial_num": 70,
    "trial_length": 10,
    "click_num": 7,
    "RT": 598,
    "action": 0,
    "reward": -1.7
  },
  {
    "phase": "TASK",
    "condition": "Cond4",
    "trial_num": 70,
    "trial_length": 10,
    "click_num": 8,
    "RT": 592,
    "action": 0,
    "reward": -1.7
  },
  {
    "phase": "TASK",
    "condition": "Cond4",
    "trial_num": 70,
    "trial_length": 10,
    "click_num": 9,
    "RT": 576,
    "action": 0,
    "reward": -1.7
  },
  {
    "phase": "TASK",
    "condition": "Cond4",
    "trial_num": 70,
    "trial_length": 10,
    "click_num": 10,
    "RT": 1016,
    "action": 0,
    "reward": -1.7
  },
  {
    "phase": "TASK",
    "condition": "Cond4",
    "trial_num": 71,
    "trial_length": 6,
    "click_num": 1,
    "RT": 966,
    "action": 1,
    "reward": -2.5
  },
  {
    "phase": "TASK",
    "condition": "Cond4",
    "trial_num": 71,
    "trial_length": 6,
    "click_num": 2,
    "RT": 1024,
    "action": 1,
    "reward": -2.3
  },
  {
    "phase": "TASK",
    "condition": "Cond4",
    "trial_num": 71,
    "trial_length": 6,
    "click_num": 3,
    "RT": 2320,
    "action": 0,
    "reward": -2.3
  },
  {
    "phase": "TASK",
    "condition": "Cond4",
    "trial_num": 71,
    "trial_length": 6,
    "click_num": 4,
    "RT": 616,
    "action": 0,
    "reward": -2.3
  },
  {
    "phase": "TASK",
    "condition": "Cond4",
    "trial_num": 71,
    "trial_length": 6,
    "click_num": 5,
    "RT": 1001,
    "action": 0,
    "reward": -2.3
  },
  {
    "phase": "TASK",
    "condition": "Cond4",
    "trial_num": 71,
    "trial_length": 6,
    "click_num": 6,
    "RT": 1313,
    "action": 0,
    "reward": -2.3
  },
  {
    "phase": "TASK",
    "condition": "Cond4",
    "trial_num": 72,
    "trial_length": 9,
    "click_num": 1,
    "RT": 1174,
    "action": 1,
    "reward": -3.4
  },
  {
    "phase": "TASK",
    "condition": "Cond4",
    "trial_num": 72,
    "trial_length": 9,
    "click_num": 2,
    "RT": 1051,
    "action": 1,
    "reward": -3
  },
  {
    "phase": "TASK",
    "condition": "Cond4",
    "trial_num": 72,
    "trial_length": 9,
    "click_num": 3,
    "RT": 812,
    "action": 1,
    "reward": -3.1
  },
  {
    "phase": "TASK",
    "condition": "Cond4",
    "trial_num": 72,
    "trial_length": 9,
    "click_num": 4,
    "RT": 760,
    "action": 1,
    "reward": -2.9
  },
  {
    "phase": "TASK",
    "condition": "Cond4",
    "trial_num": 72,
    "trial_length": 9,
    "click_num": 5,
    "RT": 921,
    "action": 1,
    "reward": -3.3
  },
  {
    "phase": "TASK",
    "condition": "Cond4",
    "trial_num": 72,
    "trial_length": 9,
    "click_num": 6,
    "RT": 799,
    "action": 1,
    "reward": -4
  },
  {
    "phase": "TASK",
    "condition": "Cond4",
    "trial_num": 72,
    "trial_length": 9,
    "click_num": 7,
    "RT": 808,
    "action": 1,
    "reward": -2.6
  },
  {
    "phase": "TASK",
    "condition": "Cond4",
    "trial_num": 72,
    "trial_length": 9,
    "click_num": 8,
    "RT": 928,
    "action": 1,
    "reward": -3.2
  },
  {
    "phase": "TASK",
    "condition": "Cond4",
    "trial_num": 72,
    "trial_length": 9,
    "click_num": 9,
    "RT": 1452,
    "action": 1,
    "reward": -3.6
  },
  {
    "phase": "TASK",
    "condition": "Cond4",
    "trial_num": 73,
    "trial_length": 8,
    "click_num": 1,
    "RT": 1693,
    "action": 1,
    "reward": -2.8
  },
  {
    "phase": "TASK",
    "condition": "Cond4",
    "trial_num": 73,
    "trial_length": 8,
    "click_num": 2,
    "RT": 5675,
    "action": 1,
    "reward": -3.3
  },
  {
    "phase": "TASK",
    "condition": "Cond4",
    "trial_num": 73,
    "trial_length": 8,
    "click_num": 3,
    "RT": 1853,
    "action": 1,
    "reward": -2.8
  },
  {
    "phase": "TASK",
    "condition": "Cond4",
    "trial_num": 73,
    "trial_length": 8,
    "click_num": 4,
    "RT": 1318,
    "action": 1,
    "reward": -2.8
  },
  {
    "phase": "TASK",
    "condition": "Cond4",
    "trial_num": 73,
    "trial_length": 8,
    "click_num": 5,
    "RT": 693,
    "action": 1,
    "reward": -3.3
  },
  {
    "phase": "TASK",
    "condition": "Cond4",
    "trial_num": 73,
    "trial_length": 8,
    "click_num": 6,
    "RT": 1173,
    "action": 1,
    "reward": -2.8
  },
  {
    "phase": "TASK",
    "condition": "Cond4",
    "trial_num": 73,
    "trial_length": 8,
    "click_num": 7,
    "RT": 1288,
    "action": 1,
    "reward": -2.7
  },
  {
    "phase": "TASK",
    "condition": "Cond4",
    "trial_num": 73,
    "trial_length": 8,
    "click_num": 8,
    "RT": 1554,
    "action": 1,
    "reward": -3.4
  },
  {
    "phase": "TASK",
    "condition": "Cond4",
    "trial_num": 74,
    "trial_length": 6,
    "click_num": 1,
    "RT": 1000,
    "action": 1,
    "reward": -3.4
  },
  {
    "phase": "TASK",
    "condition": "Cond4",
    "trial_num": 74,
    "trial_length": 6,
    "click_num": 2,
    "RT": 862,
    "action": 1,
    "reward": -2.7
  },
  {
    "phase": "TASK",
    "condition": "Cond4",
    "trial_num": 74,
    "trial_length": 6,
    "click_num": 3,
    "RT": 832,
    "action": 1,
    "reward": -3.6
  },
  {
    "phase": "TASK",
    "condition": "Cond4",
    "trial_num": 74,
    "trial_length": 6,
    "click_num": 4,
    "RT": 1028,
    "action": 0,
    "reward": -2.7
  },
  {
    "phase": "TASK",
    "condition": "Cond4",
    "trial_num": 74,
    "trial_length": 6,
    "click_num": 5,
    "RT": 638,
    "action": 0,
    "reward": -2.7
  },
  {
    "phase": "TASK",
    "condition": "Cond4",
    "trial_num": 74,
    "trial_length": 6,
    "click_num": 6,
    "RT": 591,
    "action": 0,
    "reward": -2.7
  },
  {
    "phase": "TASK",
    "condition": "Cond4",
    "trial_num": 75,
    "trial_length": 9,
    "click_num": 1,
    "RT": 896,
    "action": 1,
    "reward": -2.9
  },
  {
    "phase": "TASK",
    "condition": "Cond4",
    "trial_num": 75,
    "trial_length": 9,
    "click_num": 2,
    "RT": 893,
    "action": 1,
    "reward": -3.1
  },
  {
    "phase": "TASK",
    "condition": "Cond4",
    "trial_num": 75,
    "trial_length": 9,
    "click_num": 3,
    "RT": 1113,
    "action": 1,
    "reward": -3.2
  },
  {
    "phase": "TASK",
    "condition": "Cond4",
    "trial_num": 75,
    "trial_length": 9,
    "click_num": 4,
    "RT": 753,
    "action": 1,
    "reward": -2.3
  },
  {
    "phase": "TASK",
    "condition": "Cond4",
    "trial_num": 75,
    "trial_length": 9,
    "click_num": 5,
    "RT": 1548,
    "action": 0,
    "reward": -2.3
  },
  {
    "phase": "TASK",
    "condition": "Cond4",
    "trial_num": 75,
    "trial_length": 9,
    "click_num": 6,
    "RT": 914,
    "action": 0,
    "reward": -2.3
  },
  {
    "phase": "TASK",
    "condition": "Cond4",
    "trial_num": 75,
    "trial_length": 9,
    "click_num": 7,
    "RT": 631,
    "action": 0,
    "reward": -2.3
  },
  {
    "phase": "TASK",
    "condition": "Cond4",
    "trial_num": 75,
    "trial_length": 9,
    "click_num": 8,
    "RT": 634,
    "action": 0,
    "reward": -2.3
  },
  {
    "phase": "TASK",
    "condition": "Cond4",
    "trial_num": 75,
    "trial_length": 9,
    "click_num": 9,
    "RT": 607,
    "action": 0,
    "reward": -2.3
  },
  {
    "phase": "TASK",
    "condition": "Cond4",
    "trial_num": 76,
    "trial_length": 6,
    "click_num": 1,
    "RT": 1652,
    "action": 1,
    "reward": -2.6
  },
  {
    "phase": "TASK",
    "condition": "Cond4",
    "trial_num": 76,
    "trial_length": 6,
    "click_num": 2,
    "RT": 1081,
    "action": 1,
    "reward": -3.9
  },
  {
    "phase": "TASK",
    "condition": "Cond4",
    "trial_num": 76,
    "trial_length": 6,
    "click_num": 3,
    "RT": 802,
    "action": 0,
    "reward": -2.6
  },
  {
    "phase": "TASK",
    "condition": "Cond4",
    "trial_num": 76,
    "trial_length": 6,
    "click_num": 4,
    "RT": 810,
    "action": 1,
    "reward": -3.5
  },
  {
    "phase": "TASK",
    "condition": "Cond4",
    "trial_num": 76,
    "trial_length": 6,
    "click_num": 5,
    "RT": 1056,
    "action": 1,
    "reward": -3.1
  },
  {
    "phase": "TASK",
    "condition": "Cond4",
    "trial_num": 76,
    "trial_length": 6,
    "click_num": 6,
    "RT": 917,
    "action": 0,
    "reward": -2.6
  },
  {
    "phase": "TASK",
    "condition": "Cond4",
    "trial_num": 77,
    "trial_length": 9,
    "click_num": 1,
    "RT": 1064,
    "action": 1,
    "reward": -3.5
  },
  {
    "phase": "TASK",
    "condition": "Cond4",
    "trial_num": 77,
    "trial_length": 9,
    "click_num": 2,
    "RT": 905,
    "action": 1,
    "reward": -3.6
  },
  {
    "phase": "TASK",
    "condition": "Cond4",
    "trial_num": 77,
    "trial_length": 9,
    "click_num": 3,
    "RT": 791,
    "action": 1,
    "reward": -2.6
  },
  {
    "phase": "TASK",
    "condition": "Cond4",
    "trial_num": 77,
    "trial_length": 9,
    "click_num": 4,
    "RT": 809,
    "action": 1,
    "reward": -1.7
  },
  {
    "phase": "TASK",
    "condition": "Cond4",
    "trial_num": 77,
    "trial_length": 9,
    "click_num": 5,
    "RT": 1560,
    "action": 0,
    "reward": -1.7
  },
  {
    "phase": "TASK",
    "condition": "Cond4",
    "trial_num": 77,
    "trial_length": 9,
    "click_num": 6,
    "RT": 608,
    "action": 0,
    "reward": -1.7
  },
  {
    "phase": "TASK",
    "condition": "Cond4",
    "trial_num": 77,
    "trial_length": 9,
    "click_num": 7,
    "RT": 568,
    "action": 0,
    "reward": -1.7
  },
  {
    "phase": "TASK",
    "condition": "Cond4",
    "trial_num": 77,
