[
  {
    "phase": "TASK",
    "condition": "Cond4",
    "trial_num": 1,
    "trial_length": 8,
    "click_num": 1,
    "RT": 5200,
    "action": 1,
    "reward": -1.9
  },
  {
    "phase": "TASK",
    "condition": "Cond4",
    "trial_num": 1,
    "trial_length": 8,
    "click_num": 2,
    "RT": 7982,
    "action": 1,
    "reward": -2.6
  },
  {
    "phase": "TASK",
    "condition": "Cond4",
    "trial_num": 1,
    "trial_length": 8,
    "click_num": 3,
    "RT": 3224,
    "action": 1,
    "reward": -3.3
  },
  {
    "phase": "TASK",
    "condition": "Cond4",
    "trial_num": 1,
    "trial_length": 8,
    "click_num": 4,
    "RT": 2471,
    "action": 1,
    "reward": -3
  },
  {
    "phase": "TASK",
    "condition": "Cond4",
    "trial_num": 1,
    "trial_length": 8,
    "click_num": 5,
    "RT": 5383,
    "action": 1,
    "reward": -3.8
  },
  {
    "phase": "TASK",
    "condition": "Cond4",
    "trial_num": 1,
    "trial_length": 8,
    "click_num": 6,
    "RT": 1808,
    "action": 0,
    "reward": -1.9
  },
  {
    "phase": "TASK",
    "condition": "Cond4",
    "trial_num": 1,
    "trial_length": 8,
    "click_num": 7,
    "RT": 1736,
    "action": 0,
    "reward": -1.9
  },
  {
    "phase": "TASK",
    "condition": "Cond4",
    "trial_num": 1,
    "trial_length": 8,
    "click_num": 8,
    "RT": 1209,
    "action": 0,
    "reward": -1.9
  },
  {
    "phase": "TASK",
    "condition": "Cond4",
    "trial_num": 2,
    "trial_length": 8,
    "click_num": 1,
    "RT": 2373,
    "action": 1,
    "reward": -3.6
  },
  {
    "phase": "TASK",
    "condition": "Cond4",
    "trial_num": 2,
    "trial_length": 8,
    "click_num": 2,
    "RT": 2080,
    "action": 1,
    "reward": -2.2
  },
  {
    "phase": "TASK",
    "condition": "Cond4",
    "trial_num": 2,
    "trial_length": 8,
    "click_num": 3,
    "RT": 1832,
    "action": 1,
    "reward": -2.5
  },
  {
    "phase": "TASK",
    "condition": "Cond4",
    "trial_num": 2,
    "trial_length": 8,
    "click_num": 4,
    "RT": 1703,
    "action": 1,
    "reward": -2.1
  },
  {
    "phase": "TASK",
    "condition": "Cond4",
    "trial_num": 2,
    "trial_length": 8,
    "click_num": 5,
    "RT": 2720,
    "action": 1,
    "reward": -2.5
  },
  {
    "phase": "TASK",
    "condition": "Cond4",
    "trial_num": 2,
    "trial_length": 8,
    "click_num": 6,
    "RT": 1688,
    "action": 0,
    "reward": -2.1
  },
  {
    "phase": "TASK",
    "condition": "Cond4",
    "trial_num": 2,
    "trial_length": 8,
    "click_num": 7,
    "RT": 1048,
    "action": 0,
    "reward": -2.1
  },
  {
    "phase": "TASK",
    "condition": "Cond4",
    "trial_num": 2,
    "trial_length": 8,
    "click_num": 8,
    "RT": 937,
    "action": 0,
    "reward": -2.1
  },
  {
    "phase": "TASK",
    "condition": "Cond4",
    "trial_num": 3,
    "trial_length": 9,
    "click_num": 1,
    "RT": 2366,
    "action": 1,
    "reward": -3.2
  },
  {
    "phase": "TASK",
    "condition": "Cond4",
    "trial_num": 3,
    "trial_length": 9,
    "click_num": 2,
    "RT": 1992,
    "action": 1,
    "reward": -2.7
  },
  {
    "phase": "TASK",
    "condition": "Cond4",
    "trial_num": 3,
    "trial_length": 9,
    "click_num": 3,
    "RT": 1480,
    "action": 1,
    "reward": -3.7
  },
  {
    "phase": "TASK",
    "condition": "Cond4",
    "trial_num": 3,
    "trial_length": 9,
    "click_num": 4,
    "RT": 2144,
    "action": 1,
    "reward": -2.8
  },
  {
    "phase": "TASK",
    "condition": "Cond4",
    "trial_num": 3,
    "trial_length": 9,
    "click_num": 5,
    "RT": 1327,
    "action": 1,
    "reward": -2.2
  },
  {
    "phase": "TASK",
    "condition": "Cond4",
    "trial_num": 3,
    "trial_length": 9,
    "click_num": 6,
    "RT": 6612,
    "action": 1,
    "reward": -3.1
  },
  {
    "phase": "TASK",
    "condition": "Cond4",
    "trial_num": 3,
    "trial_length": 9,
    "click_num": 7,
    "RT": 1534,
    "action": 0,
    "reward": -2.2
  },
  {
    "phase": "TASK",
    "condition": "Cond4",
    "trial_num": 3,
    "trial_length": 9,
    "click_num": 8,
    "RT": 1119,
    "action": 0,
    "reward": -2.2
  },
  {
    "phase": "TASK",
    "condition": "Cond4",
    "trial_num": 3,
    "trial_length": 9,
    "click_num": 9,
    "RT": 1055,
    "action": 0,
    "reward": -2.2
  },
  {
    "phase": "TASK",
    "condition": "Cond4",
    "trial_num": 4,
    "trial_length": 6,
    "click_num": 1,
    "RT": 2477,
    "action": 1,
    "reward": -2.4
  },
  {
    "phase": "TASK",
    "condition": "Cond4",
    "trial_num": 4,
    "trial_length": 6,
    "click_num": 2,
    "RT": 2032,
    "action": 1,
    "reward": -3.1
  },
  {
    "phase": "TASK",
    "condition": "Cond4",
    "trial_num": 4,
    "trial_length": 6,
    "click_num": 3,
    "RT": 1736,
    "action": 1,
    "reward": -2.6
  },
  {
    "phase": "TASK",
    "condition": "Cond4",
    "trial_num": 4,
    "trial_length": 6,
    "click_num": 4,
    "RT": 1370,
    "action": 0,
    "reward": -2.4
  },
  {
    "phase": "TASK",
    "condition": "Cond4",
    "trial_num": 4,
    "trial_length": 6,
    "click_num": 5,
    "RT": 1070,
    "action": 0,
    "reward": -2.4
  },
  {
    "phase": "TASK",
    "condition": "Cond4",
    "trial_num": 4,
    "trial_length": 6,
    "click_num": 6,
    "RT": 928,
    "action": 0,
    "reward": -2.4
  },
  {
    "phase": "TASK",
    "condition": "Cond4",
    "trial_num": 5,
    "trial_length": 5,
    "click_num": 1,
    "RT": 1649,
    "action": 1,
    "reward": -2.8
  },
  {
    "phase": "TASK",
    "condition": "Cond4",
    "trial_num": 5,
    "trial_length": 5,
    "click_num": 2,
    "RT": 2204,
    "action": 1,
    "reward": -3.3
  },
  {
    "phase": "TASK",
    "condition": "Cond4",
    "trial_num": 5,
    "trial_length": 5,
    "click_num": 3,
    "RT": 2969,
    "action": 1,
    "reward": -2.5
  },
  {
    "phase": "TASK",
    "condition": "Cond4",
    "trial_num": 5,
    "trial_length": 5,
    "click_num": 4,
    "RT": 1647,
    "action": 0,
    "reward": -2.5
  },
  {
    "phase": "TASK",
    "condition": "Cond4",
    "trial_num": 5,
    "trial_length": 5,
    "click_num": 5,
    "RT": 1025,
    "action": 0,
    "reward": -2.5
  },
  {
    "phase": "TASK",
    "condition": "Cond4",
    "trial_num": 6,
    "trial_length": 5,
    "click_num": 1,
    "RT": 1790,
    "action": 1,
    "reward": -3.2
  },
  {
    "phase": "TASK",
    "condition": "Cond4",
    "trial_num": 6,
    "trial_length": 5,
    "click_num": 2,
    "RT": 1568,
    "action": 1,
    "reward": -3.3
  },
  {
    "phase": "TASK",
    "condition": "Cond4",
    "trial_num": 6,
    "trial_length": 5,
    "click_num": 3,
    "RT": 2256,
    "action": 1,
    "reward": -3
  },
  {
    "phase": "TASK",
    "condition": "Cond4",
    "trial_num": 6,
    "trial_length": 5,
    "click_num": 4,
    "RT": 1457,
    "action": 0,
    "reward": -3
  },
  {
    "phase": "TASK",
    "condition": "Cond4",
    "trial_num": 6,
    "trial_length": 5,
    "click_num": 5,
    "RT": 1192,
    "action": 0,
    "reward": -3
  },
  {
    "phase": "TASK",
    "condition": "Cond4",
    "trial_num": 7,
    "trial_length": 7,
    "click_num": 1,
    "RT": 1825,
    "action": 1,
    "reward": -1.2
  },
  {
    "phase": "TASK",
    "condition": "Cond4",
    "trial_num": 7,
    "trial_length": 7,
    "click_num": 2,
    "RT": 4879,
    "action": 0,
    "reward": -1.2
  },
  {
    "phase": "TASK",
    "condition": "Cond4",
    "trial_num": 7,
    "trial_length": 7,
    "click_num": 3,
    "RT": 1039,
    "action": 0,
    "reward": -1.2
  },
  {
    "phase": "TASK",
    "condition": "Cond4",
    "trial_num": 7,
    "trial_length": 7,
    "click_num": 4,
    "RT": 1128,
    "action": 0,
    "reward": -1.2
  },
  {
    "phase": "TASK",
    "condition": "Cond4",
    "trial_num": 7,
    "trial_length": 7,
    "click_num": 5,
    "RT": 1275,
    "action": 0,
    "reward": -1.2
  },
  {
    "phase": "TASK",
    "condition": "Cond4",
    "trial_num": 7,
    "trial_length": 7,
    "click_num": 6,
    "RT": 1165,
    "action": 0,
    "reward": -1.2
  },
  {
    "phase": "TASK",
    "condition": "Cond4",
    "trial_num": 7,
    "trial_length": 7,
    "click_num": 7,
    "RT": 1176,
    "action": 0,
    "reward": -1.2
  },
  {
    "phase": "TASK",
    "condition": "Cond4",
    "trial_num": 8,
    "trial_length": 9,
    "click_num": 1,
    "RT": 1966,
    "action": 1,
    "reward": -2.5
  },
  {
    "phase": "TASK",
    "condition": "Cond4",
    "trial_num": 8,
    "trial_length": 9,
    "click_num": 2,
    "RT": 1710,
    "action": 1,
    "reward": -3.7
  },
  {
    "phase": "TASK",
    "condition": "Cond4",
    "trial_num": 8,
    "trial_length": 9,
    "click_num": 3,
    "RT": 1706,
    "action": 1,
    "reward": -2.5
  },
  {
    "phase": "TASK",
    "condition": "Cond4",
    "trial_num": 8,
    "trial_length": 9,
    "click_num": 4,
    "RT": 3027,
    "action": 1,
    "reward": -3.1
  },
  {
    "phase": "TASK",
    "condition": "Cond4",
    "trial_num": 8,
    "trial_length": 9,
    "click_num": 5,
    "RT": 3748,
    "action": 1,
    "reward": -2.4
  },
  {
    "phase": "TASK",
    "condition": "Cond4",
    "trial_num": 8,
    "trial_length": 9,
    "click_num": 6,
    "RT": 1601,
    "action": 0,
    "reward": -2.4
  },
  {
    "phase": "TASK",
    "condition": "Cond4",
    "trial_num": 8,
    "trial_length": 9,
    "click_num": 7,
    "RT": 968,
    "action": 0,
    "reward": -2.4
  },
  {
    "phase": "TASK",
    "condition": "Cond4",
    "trial_num": 8,
    "trial_length": 9,
    "click_num": 8,
    "RT": 1239,
    "action": 0,
    "reward": -2.4
  },
  {
    "phase": "TASK",
    "condition": "Cond4",
    "trial_num": 8,
    "trial_length": 9,
    "click_num": 9,
    "RT": 977,
    "action": 0,
    "reward": -2.4
  },
  {
    "phase": "TASK",
    "condition": "Cond4",
    "trial_num": 9,
    "trial_length": 6,
    "click_num": 1,
    "RT": 1607,
    "action": 1,
    "reward": -3.8
  },
  {
    "phase": "TASK",
    "condition": "Cond4",
    "trial_num": 9,
    "trial_length": 6,
    "click_num": 2,
    "RT": 1680,
    "action": 1,
    "reward": -3.8
  },
  {
    "phase": "TASK",
    "condition": "Cond4",
    "trial_num": 9,
    "trial_length": 6,
    "click_num": 3,
    "RT": 1473,
    "action": 1,
    "reward": -2.6
  },
  {
    "phase": "TASK",
    "condition": "Cond4",
    "trial_num": 9,
    "trial_length": 6,
    "click_num": 4,
    "RT": 8242,
    "action": 1,
    "reward": -2.8
  },
  {
    "phase": "TASK",
    "condition": "Cond4",
    "trial_num": 9,
    "trial_length": 6,
    "click_num": 5,
    "RT": 1671,
    "action": 0,
    "reward": -2.6
  },
  {
    "phase": "TASK",
    "condition": "Cond4",
    "trial_num": 9,
    "trial_length": 6,
    "click_num": 6,
    "RT": 974,
    "action": 0,
    "reward": -2.6
  },
  {
    "phase": "TASK",
    "condition": "Cond4",
    "trial_num": 10,
    "trial_length": 6,
    "click_num": 1,
    "RT": 1637,
    "action": 1,
    "reward": -2.3
  },
  {
    "phase": "TASK",
    "condition": "Cond4",
    "trial_num": 10,
    "trial_length": 6,
    "click_num": 2,
    "RT": 1998,
    "action": 1,
    "reward": -3.4
  },
  {
    "phase": "TASK",
    "condition": "Cond4",
    "trial_num": 10,
    "trial_length": 6,
    "click_num": 3,
    "RT": 1471,
    "action": 1,
    "reward": -3.1
  },
  {
    "phase": "TASK",
    "condition": "Cond4",
    "trial_num": 10,
    "trial_length": 6,
    "click_num": 4,
    "RT": 1514,
    "action": 0,
    "reward": -2.3
  },
  {
    "phase": "TASK",
    "condition": "Cond4",
    "trial_num": 10,
    "trial_length": 6,
    "click_num": 5,
    "RT": 1247,
    "action": 0,
    "reward": -2.3
  },
  {
    "phase": "TASK",
    "condition": "Cond4",
    "trial_num": 10,
    "trial_length": 6,
    "click_num": 6,
    "RT": 999,
    "action": 0,
    "reward": -2.3
  },
  {
    "phase": "TASK",
    "condition": "Cond4",
    "trial_num": 11,
    "trial_length": 6,
    "click_num": 1,
    "RT": 1286,
    "action": 1,
    "reward": -3.8
  },
  {
    "phase": "TASK",
    "condition": "Cond4",
    "trial_num": 11,
    "trial_length": 6,
    "click_num": 2,
    "RT": 1295,
    "action": 1,
    "reward": -3
  },
  {
    "phase": "TASK",
    "condition": "Cond4",
    "trial_num": 11,
    "trial_length": 6,
    "click_num": 3,
    "RT": 1365,
    "action": 1,
    "reward": -2.1
  },
  {
    "phase": "TASK",
    "condition": "Cond4",
    "trial_num": 11,
    "trial_length": 6,
    "click_num": 4,
    "RT": 2066,
    "action": 1,
    "reward": -2.5
  },
  {
    "phase": "TASK",
    "condition": "Cond4",
    "trial_num": 11,
    "trial_length": 6,
    "click_num": 5,
    "RT": 1144,
    "action": 0,
    "reward": -2.1
  },
  {
    "phase": "TASK",
    "condition": "Cond4",
    "trial_num": 11,
    "trial_length": 6,
    "click_num": 6,
    "RT": 1017,
    "action": 0,
    "reward": -2.1
  },
  {
    "phase": "TASK",
    "condition": "Cond4",
    "trial_num": 12,
    "trial_length": 9,
    "click_num": 1,
    "RT": 1655,
    "action": 1,
    "reward": -2.8
  },
  {
    "phase": "TASK",
    "condition": "Cond4",
    "trial_num": 12,
    "trial_length": 9,
    "click_num": 2,
    "RT": 1408,
    "action": 1,
    "reward": -3.1
  },
  {
    "phase": "TASK",
    "condition": "Cond4",
    "trial_num": 12,
    "trial_length": 9,
    "click_num": 3,
    "RT": 1672,
    "action": 1,
    "reward": -4.2
  },
  {
    "phase": "TASK",
    "condition": "Cond4",
    "trial_num": 12,
    "trial_length": 9,
    "click_num": 4,
    "RT": 1536,
    "action": 1,
    "reward": -3.3
  },
  {
    "phase": "TASK",
    "condition": "Cond4",
    "trial_num": 12,
    "trial_length": 9,
    "click_num": 5,
    "RT": 2304,
    "action": 1,
    "reward": -2.9
  },
  {
    "phase": "TASK",
    "condition": "Cond4",
    "trial_num": 12,
    "trial_length": 9,
    "click_num": 6,
    "RT": 1503,
    "action": 0,
    "reward": -2.8
  },
  {
    "phase": "TASK",
    "condition": "Cond4",
    "trial_num": 12,
    "trial_length": 9,
    "click_num": 7,
    "RT": 969,
    "action": 0,
    "reward": -2.8
  },
  {
    "phase": "TASK",
    "condition": "Cond4",
    "trial_num": 12,
    "trial_length": 9,
    "click_num": 8,
    "RT": 1088,
    "action": 0,
    "reward": -2.8
  },
  {
    "phase": "TASK",
    "condition": "Cond4",
    "trial_num": 12,
    "trial_length": 9,
    "click_num": 9,
    "RT": 1031,
    "action": 0,
    "reward": -2.8
  },
  {
    "phase": "TASK",
    "condition": "Cond4",
    "trial_num": 13,
    "trial_length": 10,
    "click_num": 1,
    "RT": 1687,
    "action": 1,
    "reward": -3.9
  },
  {
    "phase": "TASK",
    "condition": "Cond4",
    "trial_num": 13,
    "trial_length": 10,
    "click_num": 2,
    "RT": 1479,
    "action": 1,
    "reward": -2.7
  },
  {
    "phase": "TASK",
    "condition": "Cond4",
    "trial_num": 13,
    "trial_length": 10,
    "click_num": 3,
    "RT": 1452,
    "action": 1,
    "reward": -2.9
  },
  {
    "phase": "TASK",
    "condition": "Cond4",
    "trial_num": 13,
    "trial_length": 10,
    "click_num": 4,
    "RT": 1389,
    "action": 1,
    "reward": -3.1
  },
  {
    "phase": "TASK",
    "condition": "Cond4",
    "trial_num": 13,
    "trial_length": 10,
    "click_num": 5,
    "RT": 1256,
    "action": 1,
    "reward": -2.1
  },
  {
    "phase": "TASK",
    "condition": "Cond4",
    "trial_num": 13,
    "trial_length": 10,
    "click_num": 6,
    "RT": 2079,
    "action": 1,
    "reward": -3.3
  },
  {
    "phase": "TASK",
    "condition": "Cond4",
    "trial_num": 13,
    "trial_length": 10,
    "click_num": 7,
    "RT": 1914,
    "action": 0,
    "reward": -2.1
  },
  {
    "phase": "TASK",
    "condition": "Cond4",
    "trial_num": 13,
    "trial_length": 10,
    "click_num": 8,
    "RT": 1134,
    "action": 0,
    "reward": -2.1
  },
  {
    "phase": "TASK",
    "condition": "Cond4",
    "trial_num": 13,
    "trial_length": 10,
    "click_num": 9,
    "RT": 1081,
    "action": 0,
    "reward": -2.1
  },
  {
    "phase": "TASK",
    "condition": "Cond4",
    "trial_num": 13,
    "trial_length": 10,
    "click_num": 10,
    "RT": 1249,
    "action": 0,
    "reward": -2.1
  },
  {
    "phase": "TASK",
    "condition": "Cond4",
    "trial_num": 14,
    "trial_length": 6,
    "click_num": 1,
    "RT": 1526,
    "action": 1,
    "reward": -2.6
  },
  {
    "phase": "TASK",
    "condition": "Cond4",
    "trial_num": 14,
    "trial_length": 6,
    "click_num": 2,
    "RT": 3720,
    "action": 1,
    "reward": -2.7
  },
  {
    "phase": "TASK",
    "condition": "Cond4",
    "trial_num": 14,
    "trial_length": 6,
    "click_num": 3,
    "RT": 1751,
    "action": 1,
    "reward": -2.7
  },
  {
    "phase": "TASK",
    "condition": "Cond4",
    "trial_num": 14,
    "trial_length": 6,
    "click_num": 4,
    "RT": 3585,
    "action": 1,
    "reward": -3.1
  },
  {
    "phase": "TASK",
    "condition": "Cond4",
    "trial_num": 14,
    "trial_length": 6,
    "click_num": 5,
    "RT": 1144,
    "action": 0,
    "reward": -2.6
  },
  {
    "phase": "TASK",
    "condition": "Cond4",
    "trial_num": 14,
    "trial_length": 6,
    "click_num": 6,
    "RT": 1423,
    "action": 0,
    "reward": -2.6
  },
  {
    "phase": "TASK",
    "condition": "Cond4",
    "trial_num": 15,
    "trial_length": 9,
    "click_num": 1,
    "RT": 1881,
    "action": 1,
    "reward": -2.5
  },
  {
    "phase": "TASK",
    "condition": "Cond4",
    "trial_num": 15,
    "trial_length": 9,
    "click_num": 2,
    "RT": 1887,
    "action": 1,
    "reward": -2.8
  },
  {
    "phase": "TASK",
    "condition": "Cond4",
    "trial_num": 15,
    "trial_length": 9,
    "click_num": 3,
    "RT": 1850,
    "action": 1,
    "reward": -2.9
  },
  {
    "phase": "TASK",
    "condition": "Cond4",
    "trial_num": 15,
    "trial_length": 9,
    "click_num": 4,
    "RT": 1529,
    "action": 1,
    "reward": -2.7
  },
  {
    "phase": "TASK",
    "condition": "Cond4",
    "trial_num": 15,
    "trial_length": 9,
    "click_num": 5,
    "RT": 1181,
    "action": 1,
    "reward": -2.3
  },
  {
    "phase": "TASK",
    "condition": "Cond4",
    "trial_num": 15,
    "trial_length": 9,
    "click_num": 6,
    "RT": 2056,
    "action": 0,
    "reward": -2.3
  },
  {
    "phase": "TASK",
    "condition": "Cond4",
    "trial_num": 15,
    "trial_length": 9,
    "click_num": 7,
    "RT": 1323,
    "action": 0,
    "reward": -2.3
  },
  {
    "phase": "TASK",
    "condition": "Cond4",
    "trial_num": 15,
    "trial_length": 9,
    "click_num": 8,
    "RT": 1109,
    "action": 0,
    "reward": -2.3
  },
  {
    "phase": "TASK",
    "condition": "Cond4",
    "trial_num": 15,
    "trial_length": 9,
    "click_num": 9,
    "RT": 1080,
    "action": 0,
    "reward": -2.3
  },
  {
    "phase": "TASK",
    "condition": "Cond4",
    "trial_num": 16,
    "trial_length": 7,
    "click_num": 1,
    "RT": 1671,
    "action": 1,
    "reward": -3.8
  },
  {
    "phase": "TASK",
    "condition": "Cond4",
    "trial_num": 16,
    "trial_length": 7,
    "click_num": 2,
    "RT": 4940,
    "action": 1,
    "reward": -3.3
  },
  {
    "phase": "TASK",
    "condition": "Cond4",
    "trial_num": 16,
    "trial_length": 7,
    "click_num": 3,
    "RT": 1372,
    "action": 1,
    "reward": -3.8
  },
  {
    "phase": "TASK",
    "condition": "Cond4",
    "trial_num": 16,
    "trial_length": 7,
    "click_num": 4,
    "RT": 2101,
    "action": 1,
    "reward": -3.2
  },
  {
    "phase": "TASK",
    "condition": "Cond4",
    "trial_num": 16,
    "trial_length": 7,
    "click_num": 5,
    "RT": 1327,
    "action": 1,
    "reward": -3.4
  },
  {
    "phase": "TASK",
    "condition": "Cond4",
    "trial_num": 16,
    "trial_length": 7,
    "click_num": 6,
    "RT": 3162,
    "action": 1,
    "reward": -3.3
  },
  {
    "phase": "TASK",
    "condition": "Cond4",
    "trial_num": 16,
    "trial_length": 7,
    "click_num": 7,
    "RT": 1437,
    "action": 1,
    "reward": -3.6
  },
  {
    "phase": "TASK",
    "condition": "Cond4",
    "trial_num": 17,
    "trial_length": 8,
    "click_num": 1,
    "RT": 1216,
    "action": 1,
    "reward": -1.7
  },
  {
    "phase": "TASK",
    "condition": "Cond4",
    "trial_num": 17,
    "trial_length": 8,
    "click_num": 2,
    "RT": 2045,
    "action": 0,
    "reward": -1.7
  },
  {
    "phase": "TASK",
    "condition": "Cond4",
    "trial_num": 17,
    "trial_length": 8,
    "click_num": 3,
    "RT": 1336,
    "action": 0,
    "reward": -1.7
  },
  {
    "phase": "TASK",
    "condition": "Cond4",
    "trial_num": 17,
    "trial_length": 8,
    "click_num": 4,
    "RT": 920,
    "action": 0,
    "reward": -1.7
  },
  {
    "phase": "TASK",
    "condition": "Cond4",
    "trial_num": 17,
    "trial_length": 8,
    "click_num": 5,
    "RT": 1092,
    "action": 0,
    "reward": -1.7
  },
  {
    "phase": "TASK",
    "condition": "Cond4",
    "trial_num": 17,
    "trial_length": 8,
    "click_num": 6,
    "RT": 1101,
    "action": 0,
    "reward": -1.7
  },
  {
    "phase": "TASK",
    "condition": "Cond4",
    "trial_num": 17,
    "trial_length": 8,
    "click_num": 7,
    "RT": 1466,
    "action": 0,
    "reward": -1.7
  },
  {
    "phase": "TASK",
    "condition": "Cond4",
    "trial_num": 17,
    "trial_length": 8,
    "click_num": 8,
    "RT": 1118,
    "action": 0,
    "reward": -1.7
  },
  {
    "phase": "TASK",
    "condition": "Cond4",
    "trial_num": 18,
    "trial_length": 8,
    "click_num": 1,
    "RT": 1579,
    "action": 1,
    "reward": -3.3
  },
  {
    "phase": "TASK",
    "condition": "Cond4",
    "trial_num": 18,
    "trial_length": 8,
    "click_num": 2,
    "RT": 1553,
    "action": 1,
    "reward": -3.1
  },
  {
    "phase": "TASK",
    "condition": "Cond4",
    "trial_num": 18,
    "trial_length": 8,
    "click_num": 3,
    "RT": 1504,
    "action": 1,
    "reward": -2.6
  },
  {
    "phase": "TASK",
    "condition": "Cond4",
    "trial_num": 18,
    "trial_length": 8,
    "click_num": 4,
    "RT": 1417,
    "action": 1,
    "reward": -4.2
  },
  {
    "phase": "TASK",
    "condition": "Cond4",
    "trial_num": 18,
    "trial_length": 8,
    "click_num": 5,
    "RT": 2008,
    "action": 1,
    "reward": -3.1
  },
  {
    "phase": "TASK",
    "condition": "Cond4",
    "trial_num": 18,
    "trial_length": 8,
    "click_num": 6,
    "RT": 1627,
    "action": 0,
    "reward": -2.6
  },
  {
    "phase": "TASK",
    "condition": "Cond4",
    "trial_num": 18,
    "trial_length": 8,
    "click_num": 7,
    "RT": 973,
    "action": 0,
    "reward": -2.6
  },
  {
    "phase": "TASK",
    "condition": "Cond4",
    "trial_num": 18,
    "trial_length": 8,
    "click_num": 8,
    "RT": 994,
    "action": 0,
    "reward": -2.6
  },
  {
    "phase": "TASK",
    "condition": "Cond4",
    "trial_num": 19,
    "trial_length": 7,
    "click_num": 1,
    "RT": 1540,
    "action": 1,
    "reward": -3.5
  },
  {
    "phase": "TASK",
    "condition": "Cond4",
    "trial_num": 19,
    "trial_length": 7,
    "click_num": 2,
    "RT": 1441,
    "action": 1,
    "reward": -2.5
  },
  {
    "phase": "TASK",
    "condition": "Cond4",
    "trial_num": 19,
    "trial_length": 7,
    "click_num": 3,
    "RT": 1743,
    "action": 1,
    "reward": -3.4
  },
  {
    "phase": "TASK",
    "condition": "Cond4",
    "trial_num": 19,
    "trial_length": 7,
    "click_num": 4,
    "RT": 1475,
    "action": 1,
    "reward": -2.1
  },
  {
    "phase": "TASK",
    "condition": "Cond4",
    "trial_num": 19,
    "trial_length": 7,
    "click_num": 5,
    "RT": 1493,
    "action": 0,
    "reward": -2.1
  },
  {
    "phase": "TASK",
    "condition": "Cond4",
    "trial_num": 19,
    "trial_length": 7,
    "click_num": 6,
    "RT": 1448,
    "action": 0,
    "reward": -2.1
  },
  {
    "phase": "TASK",
    "condition": "Cond4",
    "trial_num": 19,
    "trial_length": 7,
    "click_num": 7,
    "RT": 1042,
    "action": 0,
    "reward": -2.1
  },
  {
    "phase": "TASK",
    "condition": "Cond4",
    "trial_num": 20,
    "trial_length": 6,
    "click_num": 1,
    "RT": 1367,
    "action": 1,
    "reward": -3.5
  },
  {
    "phase": "TASK",
    "condition": "Cond4",
    "trial_num": 20,
    "trial_length": 6,
    "click_num": 2,
    "RT": 1311,
    "action": 1,
    "reward": -2.3
  },
  {
    "phase": "TASK",
    "condition": "Cond4",
    "trial_num": 20,
    "trial_length": 6,
    "click_num": 3,
    "RT": 1538,
    "action": 1,
    "reward": -3
  },
  {
    "phase": "TASK",
    "condition": "Cond4",
    "trial_num": 20,
    "trial_length": 6,
    "click_num": 4,
    "RT": 1862,
    "action": 0,
    "reward": -2.3
  },
  {
    "phase": "TASK",
    "condition": "Cond4",
    "trial_num": 20,
    "trial_length": 6,
    "click_num": 5,
    "RT": 1065,
    "action": 0,
    "reward": -2.3
  },
  {
    "phase": "TASK",
    "condition": "Cond4",
    "trial_num": 20,
    "trial_length": 6,
    "click_num": 6,
    "RT": 1001,
    "action": 0,
    "reward": -2.3
  },
  {
    "phase": "TASK",
    "condition": "Cond4",
    "trial_num": 21,
    "trial_length": 7,
    "click_num": 1,
    "RT": 1280,
    "action": 1,
    "reward": -2.7
  },
  {
    "phase": "TASK",
    "condition": "Cond4",
    "trial_num": 21,
    "trial_length": 7,
    "click_num": 2,
    "RT": 1509,
    "action": 1,
    "reward": -2.3
  },
  {
    "phase": "TASK",
    "condition": "Cond4",
    "trial_num": 21,
    "trial_length": 7,
    "click_num": 3,
    "RT": 1458,
    "action": 1,
    "reward": -2.4
  },
  {
    "phase": "TASK",
    "condition": "Cond4",
    "trial_num": 21,
    "trial_length": 7,
    "click_num": 4,
    "RT": 1573,
    "action": 1,
    "reward": -3
  },
  {
    "phase": "TASK",
    "condition": "Cond4",
    "trial_num": 21,
    "trial_length": 7,
    "click_num": 5,
    "RT": 1129,
    "action": 0,
    "reward": -2.3
  },
  {
    "phase": "TASK",
    "condition": "Cond4",
    "trial_num": 21,
    "trial_length": 7,
    "click_num": 6,
    "RT": 961,
    "action": 0,
    "reward": -2.3
  },
  {
    "phase": "TASK",
    "condition": "Cond4",
    "trial_num": 21,
    "trial_length": 7,
    "click_num": 7,
    "RT": 1065,
    "action": 0,
    "reward": -2.3
  },
  {
    "phase": "TASK",
    "condition": "Cond4",
    "trial_num": 22,
    "trial_length": 7,
    "click_num": 1,
    "RT": 1308,
    "action": 1,
    "reward": -3.2
  },
  {
    "phase": "TASK",
    "condition": "Cond4",
    "trial_num": 22,
    "trial_length": 7,
    "click_num": 2,
    "RT": 1624,
    "action": 1,
    "reward": -3.9
  },
  {
    "phase": "TASK",
    "condition": "Cond4",
    "trial_num": 22,
    "trial_length": 7,
    "click_num": 3,
    "RT": 1353,
    "action": 1,
    "reward": -2.5
  },
  {
    "phase": "TASK",
    "condition": "Cond4",
    "trial_num": 22,
    "trial_length": 7,
    "click_num": 4,
    "RT": 1472,
    "action": 1,
    "reward": -2.9
  },
  {
    "phase": "TASK",
    "condition": "Cond4",
    "trial_num": 22,
    "trial_length": 7,
    "click_num": 5,
    "RT": 4186,
    "action": 1,
    "reward": -2.2
  },
  {
    "phase": "TASK",
    "condition": "Cond4",
    "trial_num": 22,
    "trial_length": 7,
    "click_num": 6,
    "RT": 1438,
    "action": 0,
    "reward": -2.2
  },
  {
    "phase": "TASK",
    "condition": "Cond4",
    "trial_num": 22,
    "trial_length": 7,
    "click_num": 7,
    "RT": 1139,
    "action": 0,
    "reward": -2.2
  },
  {
    "phase": "TASK",
    "condition": "Cond4",
    "trial_num": 23,
    "trial_length": 5,
    "click_num": 1,
    "RT": 1167,
    "action": 1,
    "reward": -1.9
  },
  {
    "phase": "TASK",
    "condition": "Cond4",
    "trial_num": 23,
    "trial_length": 5,
    "click_num": 2,
    "RT": 1915,
    "action": 0,
    "reward": -1.9
  },
  {
    "phase": "TASK",
    "condition": "Cond4",
    "trial_num": 23,
    "trial_length": 5,
    "click_num": 3,
    "RT": 1164,
    "action": 0,
    "reward": -1.9
  },
  {
    "phase": "TASK",
    "condition": "Cond4",
    "trial_num": 23,
    "trial_length": 5,
    "click_num": 4,
    "RT": 1104,
    "action": 0,
    "reward": -1.9
  },
  {
    "phase": "TASK",
    "condition": "Cond4",
    "trial_num": 23,
    "trial_length": 5,
    "click_num": 5,
    "RT": 1011,
    "action": 0,
    "reward": -1.9
  },
  {
    "phase": "TASK",
    "condition": "Cond4",
    "trial_num": 24,
    "trial_length": 8,
    "click_num": 1,
    "RT": 1157,
    "action": 1,
    "reward": -3.7
  },
  {
    "phase": "TASK",
    "condition": "Cond4",
    "trial_num": 24,
    "trial_length": 8,
    "click_num": 2,
    "RT": 1409,
    "action": 1,
    "reward": -3.1
  },
  {
    "phase": "TASK",
    "condition": "Cond4",
    "trial_num": 24,
    "trial_length": 8,
    "click_num": 3,
    "RT": 1191,
    "action": 1,
    "reward": -1.9
  },
  {
    "phase": "TASK",
    "condition": "Cond4",
    "trial_num": 24,
    "trial_length": 8,
    "click_num": 4,
    "RT": 2745,
    "action": 1,
    "reward": -2.3
  },
  {
    "phase": "TASK",
    "condition": "Cond4",
    "trial_num": 24,
    "trial_length": 8,
    "click_num": 5,
    "RT": 1599,
    "action": 0,
    "reward": -1.9
  },
  {
    "phase": "TASK",
    "condition": "Cond4",
    "trial_num": 24,
    "trial_length": 8,
    "click_num": 6,
    "RT": 1027,
    "action": 0,
    "reward": -1.9
  },
  {
    "phase": "TASK",
    "condition": "Cond4",
    "trial_num": 24,
    "trial_length": 8,
    "click_num": 7,
    "RT": 1005,
    "action": 0,
    "reward": -1.9
  },
  {
    "phase": "TASK",
    "condition": "Cond4",
    "trial_num": 24,
    "trial_length": 8,
    "click_num": 8,
    "RT": 1144,
    "action": 0,
    "reward": -1.9
  },
  {
    "phase": "TASK",
    "condition": "Cond4",
    "trial_num": 25,
    "trial_length": 7,
    "click_num": 1,
    "RT": 1169,
    "action": 1,
    "reward": -3.3
  },
  {
    "phase": "TASK",
    "condition": "Cond4",
    "trial_num": 25,
    "trial_length": 7,
    "click_num": 2,
    "RT": 1312,
    "action": 1,
    "reward": -3.4
  },
  {
    "phase": "TASK",
    "condition": "Cond4",
    "trial_num": 25,
    "trial_length": 7,
    "click_num": 3,
    "RT": 1195,
    "action": 1,
    "reward": -3.1
  },
  {
    "phase": "TASK",
    "condition": "Cond4",
    "trial_num": 25,
    "trial_length": 7,
    "click_num": 4,
    "RT": 1366,
    "action": 1,
    "reward": -3.4
  },
  {
    "phase": "TASK",
    "condition": "Cond4",
    "trial_num": 25,
    "trial_length": 7,
    "click_num": 5,
    "RT": 1856,
    "action": 1,
    "reward": -3.7
  },
  {
    "phase": "TASK",
    "condition": "Cond4",
    "trial_num": 25,
    "trial_length": 7,
    "click_num": 6,
    "RT": 1383,
    "action": 1,
    "reward": -2.2
  },
  {
    "phase": "TASK",
    "condition": "Cond4",
    "trial_num": 25,
    "trial_length": 7,
    "click_num": 7,
    "RT": 1943,
    "action": 0,
    "reward": -2.2
  },
  {
    "phase": "TASK",
    "condition": "Cond4",
    "trial_num": 26,
    "trial_length": 6,
    "click_num": 1,
    "RT": 1272,
    "action": 1,
    "reward": -3.7
  },
  {
    "phase": "TASK",
    "condition": "Cond4",
    "trial_num": 26,
    "trial_length": 6,
    "click_num": 2,
    "RT": 1442,
    "action": 1,
    "reward": -2.5
  },
  {
    "phase": "TASK",
    "condition": "Cond4",
    "trial_num": 26,
    "trial_length": 6,
    "click_num": 3,
    "RT": 1285,
    "action": 1,
    "reward": -2.1
  },
  {
    "phase": "TASK",
    "condition": "Cond4",
    "trial_num": 26,
    "trial_length": 6,
    "click_num": 4,
    "RT": 2546,
    "action": 0,
    "reward": -2.1
  },
  {
    "phase": "TASK",
    "condition": "Cond4",
    "trial_num": 26,
    "trial_length": 6,
    "click_num": 5,
    "RT": 999,
    "action": 0,
    "reward": -2.1
  },
  {
    "phase": "TASK",
    "condition": "Cond4",
    "trial_num": 26,
    "trial_length": 6,
    "click_num": 6,
    "RT": 1050,
    "action": 0,
    "reward": -2.1
  },
  {
    "phase": "TASK",
    "condition": "Cond4",
    "trial_num": 27,
    "trial_length": 9,
    "click_num": 1,
    "RT": 1503,
    "action": 1,
    "reward": -2.8
  },
  {
    "phase": "TASK",
    "condition": "Cond4",
    "trial_num": 27,
    "trial_length": 9,
    "click_num": 2,
    "RT": 2631,
    "action": 1,
    "reward": -2.1
  },
  {
    "phase": "TASK",
    "condition": "Cond4",
    "trial_num": 27,
    "trial_length": 9,
    "click_num": 3,
    "RT": 1474,
    "action": 1,
    "reward": -2.5
  },
  {
    "phase": "TASK",
    "condition": "Cond4",
    "trial_num": 27,
    "trial_length": 9,
    "click_num": 4,
    "RT": 1590,
    "action": 1,
    "reward": -1.6
  },
  {
    "phase": "TASK",
    "condition": "Cond4",
    "trial_num": 27,
    "trial_length": 9,
    "click_num": 5,
    "RT": 1746,
    "action": 0,
    "reward": -1.6
  },
  {
    "phase": "TASK",
    "condition": "Cond4",
    "trial_num": 27,
    "trial_length": 9,
    "click_num": 6,
    "RT": 1441,
    "action": 0,
    "reward": -1.6
  },
  {
    "phase": "TASK",
    "condition": "Cond4",
    "trial_num": 27,
    "trial_length": 9,
    "click_num": 7,
    "RT": 1070,
    "action": 0,
    "reward": -1.6
  },
  {
    "phase": "TASK",
    "condition": "Cond4",
    "trial_num": 27,
    "trial_length": 9,
    "click_num": 8,
    "RT": 1090,
    "action": 0,
    "reward": -1.6
  },
  {
    "phase": "TASK",
    "condition": "Cond4",
    "trial_num": 27,
    "trial_length": 9,
    "click_num": 9,
    "RT": 908,
    "action": 0,
    "reward": -1.6
  },
  {
    "phase": "TASK",
    "condition": "Cond4",
    "trial_num": 28,
    "trial_length": 7,
    "click_num": 1,
    "RT": 2127,
    "action": 1,
    "reward": -4
  },
  {
    "phase": "TASK",
    "condition": "Cond4",
    "trial_num": 28,
    "trial_length": 7,
    "click_num": 2,
    "RT": 1489,
    "action": 1,
    "reward": -2.4
  },
  {
    "phase": "TASK",
    "condition": "Cond4",
    "trial_num": 28,
    "trial_length": 7,
    "click_num": 3,
    "RT": 1670,
    "action": 1,
    "reward": -3.4
  },
  {
    "phase": "TASK",
    "condition": "Cond4",
    "trial_num": 28,
    "trial_length": 7,
    "click_num": 4,
    "RT": 1442,
    "action": 1,
    "reward": -2
  },
  {
    "phase": "TASK",
    "condition": "Cond4",
    "trial_num": 28,
    "trial_length": 7,
    "click_num": 5,
    "RT": 1429,
    "action": 0,
    "reward": -2
  },
  {
    "phase": "TASK",
    "condition": "Cond4",
    "trial_num": 28,
    "trial_length": 7,
    "click_num": 6,
    "RT": 953,
    "action": 0,
    "reward": -2
  },
  {
    "phase": "TASK",
    "condition": "Cond4",
    "trial_num": 28,
    "trial_length": 7,
    "click_num": 7,
    "RT": 1055,
    "action": 0,
    "reward": -2
  },
  {
    "phase": "TASK",
    "condition": "Cond4",
    "trial_num": 29,
    "trial_length": 9,
    "click_num": 1,
    "RT": 1279,
    "action": 1,
    "reward": -2.5
  },
  {
    "phase": "TASK",
    "condition": "Cond4",
    "trial_num": 29,
    "trial_length": 9,
    "click_num": 2,
    "RT": 1552,
    "action": 1,
    "reward": -2.4
  },
  {
    "phase": "TASK",
    "condition": "Cond4",
    "trial_num": 29,
    "trial_length": 9,
    "click_num": 3,
    "RT": 1178,
    "action": 1,
    "reward": -4
  },
  {
    "phase": "TASK",
    "condition": "Cond4",
    "trial_num": 29,
    "trial_length": 9,
    "click_num": 4,
    "RT": 1368,
    "action": 1,
    "reward": -2.9
  },
  {
    "phase": "TASK",
    "condition": "Cond4",
    "trial_num": 29,
    "trial_length": 9,
    "click_num": 5,
    "RT": 1766,
    "action": 1,
    "reward": -2.8
  },
  {
    "phase": "TASK",
    "condition": "Cond4",
    "trial_num": 29,
    "trial_length": 9,
    "click_num": 6,
    "RT": 4055,
    "action": 1,
    "reward": -4
  },
  {
    "phase": "TASK",
    "condition": "Cond4",
    "trial_num": 29,
    "trial_length": 9,
    "click_num": 7,
    "RT": 1176,
    "action": 0,
    "reward": -2.4
  },
  {
    "phase": "TASK",
    "condition": "Cond4",
    "trial_num": 29,
    "trial_length": 9,
    "click_num": 8,
    "RT": 946,
    "action": 0,
    "reward": -2.4
  },
  {
    "phase": "TASK",
    "condition": "Cond4",
    "trial_num": 29,
    "trial_length": 9,
    "click_num": 9,
    "RT": 982,
    "action": 0,
    "reward": -2.4
  },
  {
    "phase": "TASK",
    "condition": "Cond4",
    "trial_num": 30,
    "trial_length": 10,
    "click_num": 1,
    "RT": 1358,
    "action": 1,
    "reward": -3.1
  },
  {
    "phase": "TASK",
    "condition": "Cond4",
    "trial_num": 30,
    "trial_length": 10,
    "click_num": 2,
    "RT": 1504,
    "action": 1,
    "reward": -2.5
  },
  {
    "phase": "TASK",
    "condition": "Cond4",
    "trial_num": 30,
    "trial_length": 10,
    "click_num": 3,
    "RT": 1456,
    "action": 1,
    "reward": -2.8
  },
  {
    "phase": "TASK",
    "condition": "Cond4",
    "trial_num": 30,
    "trial_length": 10,
    "click_num": 4,
    "RT": 1216,
    "action": 1,
    "reward": -3
  },
  {
    "phase": "TASK",
    "condition": "Cond4",
    "trial_num": 30,
    "trial_length": 10,
    "click_num": 5,
    "RT": 1323,
    "action": 1,
    "reward": -2.9
  },
  {
    "phase": "TASK",
    "condition": "Cond4",
    "trial_num": 30,
    "trial_length": 10,
    "click_num": 6,
    "RT": 2190,
    "action": 0,
    "reward": -2.5
  },
  {
    "phase": "TASK",
    "condition": "Cond4",
    "trial_num": 30,
    "trial_length": 10,
    "click_num": 7,
    "RT": 994,
    "action": 0,
    "reward": -2.5
  },
  {
    "phase": "TASK",
    "condition": "Cond4",
    "trial_num": 30,
    "trial_length": 10,
    "click_num": 8,
    "RT": 981,
    "action": 0,
    "reward": -2.5
  },
  {
    "phase": "TASK",
    "condition": "Cond4",
    "trial_num": 30,
    "trial_length": 10,
    "click_num": 9,
    "RT": 906,
    "action": 0,
    "reward": -2.5
  },
  {
    "phase": "TASK",
    "condition": "Cond4",
    "trial_num": 30,
    "trial_length": 10,
    "click_num": 10,
    "RT": 1047,
    "action": 0,
    "reward": -2.5
  },
  {
    "phase": "TASK",
    "condition": "Cond4",
    "trial_num": 31,
    "trial_length": 9,
    "click_num": 1,
    "RT": 1056,
    "action": 1,
    "reward": -2.9
  },
  {
    "phase": "TASK",
    "condition": "Cond4",
    "trial_num": 31,
    "trial_length": 9,
    "click_num": 2,
    "RT": 1294,
    "action": 1,
    "reward": -3
  },
  {
    "phase": "TASK",
    "condition": "Cond4",
    "trial_num": 31,
    "trial_length": 9,
    "click_num": 3,
    "RT": 1731,
    "action": 1,
    "reward": -2.8
  },
  {
    "phase": "TASK",
    "condition": "Cond4",
    "trial_num": 31,
    "trial_length": 9,
    "click_num": 4,
    "RT": 1333,
    "action": 1,
    "reward": -3.6
  },
  {
    "phase": "TASK",
    "condition": "Cond4",
    "trial_num": 31,
    "trial_length": 9,
    "click_num": 5,
    "RT": 1314,
    "action": 1,
    "reward": -2.8
  },
  {
    "phase": "TASK",
    "condition": "Cond4",
    "trial_num": 31,
    "trial_length": 9,
    "click_num": 6,
    "RT": 1934,
    "action": 1,
    "reward": -3.4
  },
  {
    "phase": "TASK",
    "condition": "Cond4",
    "trial_num": 31,
    "trial_length": 9,
    "click_num": 7,
    "RT": 1312,
    "action": 0,
    "reward": -2.8
  },
  {
    "phase": "TASK",
    "condition": "Cond4",
    "trial_num": 31,
    "trial_length": 9,
    "click_num": 8,
    "RT": 1056,
    "action": 0,
    "reward": -2.8
  },
  {
    "phase": "TASK",
    "condition": "Cond4",
    "trial_num": 31,
    "trial_length": 9,
    "click_num": 9,
    "RT": 1104,
    "action": 0,
    "reward": -2.8
  },
  {
    "phase": "TASK",
    "condition": "Cond4",
    "trial_num": 32,
    "trial_length": 10,
    "click_num": 1,
    "RT": 1191,
    "action": 1,
    "reward": -3.1
  },
  {
    "phase": "TASK",
    "condition": "Cond4",
    "trial_num": 32,
    "trial_length": 10,
    "click_num": 2,
    "RT": 1328,
    "action": 1,
    "reward": -3.3
  },
  {
    "phase": "TASK",
    "condition": "Cond4",
    "trial_num": 32,
    "trial_length": 10,
    "click_num": 3,
    "RT": 1184,
    "action": 1,
    "reward": -2.2
  },
  {
    "phase": "TASK",
    "condition": "Cond4",
    "trial_num": 32,
    "trial_length": 10,
    "click_num": 4,
    "RT": 1442,
    "action": 1,
    "reward": -3.5
  },
  {
    "phase": "TASK",
    "condition": "Cond4",
    "trial_num": 32,
    "trial_length": 10,
    "click_num": 5,
    "RT": 1217,
    "action": 1,
    "reward": -2.2
  },
  {
    "phase": "TASK",
    "condition": "Cond4",
    "trial_num": 32,
    "trial_length": 10,
    "click_num": 6,
    "RT": 2150,
    "action": 0,
    "reward": -2.2
  },
  {
    "phase": "TASK",
    "condition": "Cond4",
    "trial_num": 32,
    "trial_length": 10,
    "click_num": 7,
    "RT": 1081,
    "action": 0,
    "reward": -2.2
  },
  {
    "phase": "TASK",
    "condition": "Cond4",
    "trial_num": 32,
    "trial_length": 10,
    "click_num": 8,
    "RT": 1037,
    "action": 0,
    "reward": -2.2
  },
  {
    "phase": "TASK",
    "condition": "Cond4",
    "trial_num": 32,
    "trial_length": 10,
    "click_num": 9,
    "RT": 1128,
    "action": 0,
    "reward": -2.2
  },
  {
    "phase": "TASK",
    "condition": "Cond4",
    "trial_num": 32,
    "trial_length": 10,
    "click_num": 10,
    "RT": 1049,
    "action": 0,
    "reward": -2.2
  },
  {
    "phase": "TASK",
    "condition": "Cond4",
    "trial_num": 33,
    "trial_length": 6,
    "click_num": 1,
    "RT": 1126,
    "action": 1,
    "reward": -1.8
  },
  {
    "phase": "TASK",
    "condition": "Cond4",
    "trial_num": 33,
    "trial_length": 6,
    "click_num": 2,
    "RT": 2008,
    "action": 0,
    "reward": -1.8
  },
  {
    "phase": "TASK",
    "condition": "Cond4",
    "trial_num": 33,
    "trial_length": 6,
    "click_num": 3,
    "RT": 1084,
    "action": 0,
    "reward": -1.8
  },
  {
    "phase": "TASK",
    "condition": "Cond4",
    "trial_num": 33,
    "trial_length": 6,
    "click_num": 4,
    "RT": 1269,
    "action": 0,
    "reward": -1.8
  },
  {
    "phase": "TASK",
    "condition": "Cond4",
    "trial_num": 33,
    "trial_length": 6,
    "click_num": 5,
    "RT": 1010,
    "action": 0,
    "reward": -1.8
  },
  {
    "phase": "TASK",
    "condition": "Cond4",
    "trial_num": 33,
    "trial_length": 6,
    "click_num": 6,
    "RT": 973,
    "action": 0,
    "reward": -1.8
  },
  {
    "phase": "TASK",
    "condition": "Cond4",
    "trial_num": 34,
    "trial_length": 5,
    "click_num": 1,
    "RT": 1145,
    "action": 1,
    "reward": -2.7
  },
  {
    "phase": "TASK",
    "condition": "Cond4",
    "trial_num": 34,
    "trial_length": 5,
    "click_num": 2,
    "RT": 2972,
    "action": 1,
    "reward": -3.3
  },
  {
    "phase": "TASK",
    "condition": "Cond4",
    "trial_num": 34,
    "trial_length": 5,
    "click_num": 3,
    "RT": 1291,
    "action": 1,
    "reward": -3.7
  },
  {
    "phase": "TASK",
    "condition": "Cond4",
    "trial_num": 34,
    "trial_length": 5,
    "click_num": 4,
    "RT": 2333,
    "action": 0,
    "reward": -2.7
  },
  {
    "phase": "TASK",
    "condition": "Cond4",
    "trial_num": 34,
    "trial_length": 5,
    "click_num": 5,
    "RT": 912,
    "action": 0,
    "reward": -2.7
  },
  {
    "phase": "TASK",
    "condition": "Cond4",
    "trial_num": 35,
    "trial_length": 8,
    "click_num": 1,
    "RT": 1198,
    "action": 1,
    "reward": -3.1
  },
  {
    "phase": "TASK",
    "condition": "Cond4",
    "trial_num": 35,
    "trial_length": 8,
    "click_num": 2,
    "RT": 1240,
    "action": 1,
    "reward": -3.5
  },
  {
    "phase": "TASK",
    "condition": "Cond4",
    "trial_num": 35,
    "trial_length": 8,
    "click_num": 3,
    "RT": 1185,
    "action": 1,
    "reward": -3.6
  },
  {
    "phase": "TASK",
    "condition": "Cond4",
    "trial_num": 35,
    "trial_length": 8,
    "click_num": 4,
    "RT": 1279,
    "action": 1,
    "reward": -3.9
  },
  {
    "phase": "TASK",
    "condition": "Cond4",
    "trial_num": 35,
    "trial_length": 8,
    "click_num": 5,
    "RT": 1121,
    "action": 1,
    "reward": -1.8
  },
  {
    "phase": "TASK",
    "condition": "Cond4",
    "trial_num": 35,
    "trial_length": 8,
    "click_num": 6,
    "RT": 1386,
    "action": 0,
    "reward": -1.8
  },
  {
    "phase": "TASK",
    "condition": "Cond4",
    "trial_num": 35,
    "trial_length": 8,
    "click_num": 7,
    "RT": 1199,
    "action": 0,
    "reward": -1.8
  },
  {
    "phase": "TASK",
    "condition": "Cond4",
    "trial_num": 35,
    "trial_length": 8,
    "click_num": 8,
    "RT": 1047,
    "action": 0,
    "reward": -1.8
  },
  {
    "phase": "TASK",
    "condition": "Cond4",
    "trial_num": 36,
    "trial_length": 5,
    "click_num": 1,
    "RT": 1038,
    "action": 1,
    "reward": -3.3
  },
  {
    "phase": "TASK",
    "condition": "Cond4",
    "trial_num": 36,
    "trial_length": 5,
    "click_num": 2,
    "RT": 1498,
    "action": 1,
    "reward": -2.9
  },
  {
    "phase": "TASK",
    "condition": "Cond4",
    "trial_num": 36,
    "trial_length": 5,
    "click_num": 3,
    "RT": 1398,
    "action": 1,
    "reward": -2.8
  },
  {
    "phase": "TASK",
    "condition": "Cond4",
    "trial_num": 36,
    "trial_length": 5,
    "click_num": 4,
    "RT": 1304,
    "action": 0,
    "reward": -2.8
  },
  {
    "phase": "TASK",
    "condition": "Cond4",
    "trial_num": 36,
    "trial_length": 5,
    "click_num": 5,
    "RT": 1039,
    "action": 0,
    "reward": -2.8
  },
  {
    "phase": "TASK",
    "condition": "Cond4",
    "trial_num": 37,
    "trial_length": 10,
    "click_num": 1,
    "RT": 1107,
    "action": 1,
    "reward": -2.6
  },
  {
    "phase": "TASK",
    "condition": "Cond4",
    "trial_num": 37,
    "trial_length": 10,
    "click_num": 2,
    "RT": 1458,
    "action": 1,
    "reward": -3.2
  },
  {
    "phase": "TASK",
    "condition": "Cond4",
    "trial_num": 37,
    "trial_length": 10,
    "click_num": 3,
    "RT": 1168,
    "action": 1,
    "reward": -4.6
  },
  {
    "phase": "TASK",
    "condition": "Cond4",
    "trial_num": 37,
    "trial_length": 10,
    "click_num": 4,
    "RT": 1167,
    "action": 1,
    "reward": -3.3
  },
  {
    "phase": "TASK",
    "condition": "Cond4",
    "trial_num": 37,
    "trial_length": 10,
    "click_num": 5,
    "RT": 1410,
    "action": 1,
    "reward": -3
  },
  {
    "phase": "TASK",
    "condition": "Cond4",
    "trial_num": 37,
    "trial_length": 10,
    "click_num": 6,
    "RT": 1300,
    "action": 1,
    "reward": -3
  },
  {
    "phase": "TASK",
    "condition": "Cond4",
    "trial_num": 37,
    "trial_length": 10,
    "click_num": 7,
    "RT": 1216,
    "action": 0,
    "reward": -2.6
  },
  {
    "phase": "TASK",
    "condition": "Cond4",
    "trial_num": 37,
    "trial_length": 10,
    "click_num": 8,
    "RT": 920,
    "action": 0,
    "reward": -2.6
  },
  {
    "phase": "TASK",
    "condition": "Cond4",
    "trial_num": 37,
    "trial_length": 10,
    "click_num": 9,
    "RT": 1121,
    "action": 0,
    "reward": -2.6
  },
  {
    "phase": "TASK",
    "condition": "Cond4",
    "trial_num": 37,
    "trial_length": 10,
    "click_num": 10,
    "RT": 944,
    "action": 0,
    "reward": -2.6
  },
  {
    "phase": "TASK",
    "condition": "Cond4",
    "trial_num": 38,
    "trial_length": 8,
    "click_num": 1,
    "RT": 1006,
    "action": 1,
    "reward": -3.2
  },
  {
    "phase": "TASK",
    "condition": "Cond4",
    "trial_num": 38,
    "trial_length": 8,
    "click_num": 2,
    "RT": 1177,
    "action": 1,
    "reward": -2.6
  },
  {
    "phase": "TASK",
    "condition": "Cond4",
    "trial_num": 38,
    "trial_length": 8,
    "click_num": 3,
    "RT": 929,
    "action": 1,
    "reward": -2.7
  },
  {
    "phase": "TASK",
    "condition": "Cond4",
    "trial_num": 38,
    "trial_length": 8,
    "click_num": 4,
    "RT": 1159,
    "action": 1,
    "reward": -2.5
  },
  {
    "phase": "TASK",
    "condition": "Cond4",
    "trial_num": 38,
    "trial_length": 8,
    "click_num": 5,
    "RT": 1859,
    "action": 1,
    "reward": -3.1
  },
  {
    "phase": "TASK",
    "condition": "Cond4",
    "trial_num": 38,
    "trial_length": 8,
    "click_num": 6,
    "RT": 1157,
    "action": 0,
    "reward": -2.5
  },
  {
    "phase": "TASK",
    "condition": "Cond4",
    "trial_num": 38,
    "trial_length": 8,
    "click_num": 7,
    "RT": 1090,
    "action": 0,
    "reward": -2.5
  },
  {
    "phase": "TASK",
    "condition": "Cond4",
    "trial_num": 38,
    "trial_length": 8,
    "click_num": 8,
    "RT": 926,
    "action": 0,
    "reward": -2.5
  },
  {
    "phase": "TASK",
    "condition": "Cond4",
    "trial_num": 39,
    "trial_length": 6,
    "click_num": 1,
    "RT": 947,
    "action": 1,
    "reward": -3.5
  },
  {
    "phase": "TASK",
    "condition": "Cond4",
    "trial_num": 39,
    "trial_length": 6,
    "click_num": 2,
    "RT": 1409,
    "action": 1,
    "reward": -3.6
  },
  {
    "phase": "TASK",
    "condition": "Cond4",
    "trial_num": 39,
    "trial_length": 6,
    "click_num": 3,
    "RT": 1047,
    "action": 1,
    "reward": -3.9
  },
  {
    "phase": "TASK",
    "condition": "Cond4",
    "trial_num": 39,
    "trial_length": 6,
    "click_num": 4,
    "RT": 1816,
    "action": 1,
    "reward": -2.3
  },
  {
    "phase": "TASK",
    "condition": "Cond4",
    "trial_num": 39,
    "trial_length": 6,
    "click_num": 5,
    "RT": 1713,
    "action": 0,
    "reward": -2.3
  },
  {
    "phase": "TASK",
    "condition": "Cond4",
    "trial_num": 39,
    "trial_length": 6,
    "click_num": 6,
    "RT": 903,
    "action": 0,
    "reward": -2.3
  },
  {
    "phase": "TASK",
    "condition": "Cond4",
    "trial_num": 40,
    "trial_length": 7,
    "click_num": 1,
    "RT": 1047,
    "action": 1,
    "reward": -2.5
  },
  {
    "phase": "TASK",
    "condition": "Cond4",
    "trial_num": 40,
    "trial_length": 7,
    "click_num": 2,
    "RT": 2467,
    "action": 1,
    "reward": -3
  },
  {
    "phase": "TASK",
    "condition": "Cond4",
    "trial_num": 40,
    "trial_length": 7,
    "click_num": 3,
    "RT": 1518,
    "action": 1,
    "reward": -2.2
  },
  {
    "phase": "TASK",
    "condition": "Cond4",
    "trial_num": 40,
    "trial_length": 7,
    "click_num": 4,
    "RT": 3056,
    "action": 1,
    "reward": -3.6
  },
  {
    "phase": "TASK",
    "condition": "Cond4",
    "trial_num": 40,
    "trial_length": 7,
    "click_num": 5,
    "RT": 1039,
    "action": 0,
    "reward": -2.2
  },
  {
    "phase": "TASK",
    "condition": "Cond4",
    "trial_num": 40,
    "trial_length": 7,
    "click_num": 6,
    "RT": 992,
    "action": 0,
    "reward": -2.2
  },
  {
    "phase": "TASK",
    "condition": "Cond4",
    "trial_num": 40,
    "trial_length": 7,
    "click_num": 7,
    "RT": 968,
    "action": 0,
    "reward": -2.2
  },
  {
    "phase": "TASK",
    "condition": "Cond4",
    "trial_num": 41,
    "trial_length": 10,
    "click_num": 1,
    "RT": 1062,
    "action": 1,
    "reward": -3.9
  },
  {
    "phase": "TASK",
    "condition": "Cond4",
    "trial_num": 41,
    "trial_length": 10,
    "click_num": 2,
    "RT": 1488,
    "action": 1,
    "reward": -3.3
  },
  {
    "phase": "TASK",
    "condition": "Cond4",
    "trial_num": 41,
    "trial_length": 10,
    "click_num": 3,
    "RT": 1104,
    "action": 1,
    "reward": -3.4
  },
  {
    "phase": "TASK",
    "condition": "Cond4",
    "trial_num": 41,
    "trial_length": 10,
    "click_num": 4,
    "RT": 1146,
    "action": 1,
    "reward": -3.6
  },
  {
    "phase": "TASK",
    "condition": "Cond4",
    "trial_num": 41,
    "trial_length": 10,
    "click_num": 5,
    "RT": 1247,
    "action": 1,
    "reward": -2.6
  },
  {
    "phase": "TASK",
    "condition": "Cond4",
    "trial_num": 41,
    "trial_length": 10,
    "click_num": 6,
    "RT": 1762,
    "action": 1,
    "reward": -3.2
  },
  {
    "phase": "TASK",
    "condition": "Cond4",
    "trial_num": 41,
    "trial_length": 10,
    "click_num": 7,
    "RT": 1902,
    "action": 0,
    "reward": -2.6
  },
  {
    "phase": "TASK",
    "condition": "Cond4",
    "trial_num": 41,
    "trial_length": 10,
    "click_num": 8,
    "RT": 1048,
    "action": 0,
    "reward": -2.6
  },
  {
    "phase": "TASK",
    "condition": "Cond4",
    "trial_num": 41,
    "trial_length": 10,
    "click_num": 9,
    "RT": 1071,
    "action": 0,
    "reward": -2.6
  },
  {
    "phase": "TASK",
    "condition": "Cond4",
    "trial_num": 41,
    "trial_length": 10,
    "click_num": 10,
    "RT": 1016,
    "action": 0,
    "reward": -2.6
  },
  {
    "phase": "TASK",
    "condition": "Cond4",
    "trial_num": 42,
    "trial_length": 7,
    "click_num": 1,
    "RT": 1157,
    "action": 1,
    "reward": -3.2
  },
  {
    "phase": "TASK",
    "condition": "Cond4",
    "trial_num": 42,
    "trial_length": 7,
    "click_num": 2,
    "RT": 1361,
    "action": 1,
    "reward": -3.7
  },
  {
    "phase": "TASK",
    "condition": "Cond4",
    "trial_num": 42,
    "trial_length": 7,
    "click_num": 3,
    "RT": 1279,
    "action": 1,
    "reward": -2.3
  },
  {
    "phase": "TASK",
    "condition": "Cond4",
    "trial_num": 42,
    "trial_length": 7,
    "click_num": 4,
    "RT": 1600,
    "action": 1,
    "reward": -2
  },
  {
    "phase": "TASK",
    "condition": "Cond4",
    "trial_num": 42,
    "trial_length": 7,
    "click_num": 5,
    "RT": 1681,
    "action": 0,
    "reward": -2
  },
  {
    "phase": "TASK",
    "condition": "Cond4",
    "trial_num": 42,
    "trial_length": 7,
    "click_num": 6,
    "RT": 968,
    "action": 0,
    "reward": -2
  },
  {
    "phase": "TASK",
    "condition": "Cond4",
    "trial_num": 42,
    "trial_length": 7,
    "click_num": 7,
    "RT": 952,
    "action": 0,
    "reward": -2
  },
  {
    "phase": "TASK",
    "condition": "Cond4",
    "trial_num": 43,
    "trial_length": 8,
    "click_num": 1,
    "RT": 1030,
    "action": 1,
    "reward": -2.6
  },
  {
    "phase": "TASK",
    "condition": "Cond4",
    "trial_num": 43,
    "trial_length": 8,
    "click_num": 2,
    "RT": 1392,
    "action": 1,
    "reward": -3
  },
  {
    "phase": "TASK",
    "condition": "Cond4",
    "trial_num": 43,
    "trial_length": 8,
    "click_num": 3,
    "RT": 1224,
    "action": 1,
    "reward": -3.4
  },
  {
    "phase": "TASK",
    "condition": "Cond4",
    "trial_num": 43,
    "trial_length": 8,
    "click_num": 4,
    "RT": 1488,
    "action": 1,
    "reward": -3.5
  },
  {
    "phase": "TASK",
    "condition": "Cond4",
    "trial_num": 43,
    "trial_length": 8,
    "click_num": 5,
    "RT": 1120,
    "action": 1,
    "reward": -2.9
  },
  {
    "phase": "TASK",
    "condition": "Cond4",
    "trial_num": 43,
    "trial_length": 8,
    "click_num": 6,
    "RT": 2152,
    "action": 0,
    "reward": -2.6
  },
  {
    "phase": "TASK",
    "condition": "Cond4",
    "trial_num": 43,
    "trial_length": 8,
    "click_num": 7,
    "RT": 832,
    "action": 0,
    "reward": -2.6
  },
  {
    "phase": "TASK",
    "condition": "Cond4",
    "trial_num": 43,
    "trial_length": 8,
    "click_num": 8,
    "RT": 895,
    "action": 0,
    "reward": -2.6
  },
  {
    "phase": "TASK",
    "condition": "Cond4",
    "trial_num": 44,
    "trial_length": 7,
    "click_num": 1,
    "RT": 1077,
    "action": 1,
    "reward": -4.1
  },
  {
    "phase": "TASK",
    "condition": "Cond4",
    "trial_num": 44,
    "trial_length": 7,
    "click_num": 2,
    "RT": 2393,
    "action": 1,
    "reward": -3.3
  },
  {
    "phase": "TASK",
    "condition": "Cond4",
    "trial_num": 44,
    "trial_length": 7,
    "click_num": 3,
    "RT": 1273,
    "action": 1,
    "reward": -3.5
  },
  {
    "phase": "TASK",
    "condition": "Cond4",
    "trial_num": 44,
    "trial_length": 7,
    "click_num": 4,
    "RT": 1143,
    "action": 1,
    "reward": -2.5
  },
  {
    "phase": "TASK",
    "condition": "Cond4",
    "trial_num": 44,
    "trial_length": 7,
    "click_num": 5,
    "RT": 1994,
    "action": 0,
    "reward": -2.5
  },
  {
    "phase": "TASK",
    "condition": "Cond4",
    "trial_num": 44,
    "trial_length": 7,
    "click_num": 6,
    "RT": 981,
    "action": 0,
    "reward": -2.5
  },
  {
    "phase": "TASK",
    "condition": "Cond4",
    "trial_num": 44,
    "trial_length": 7,
    "click_num": 7,
    "RT": 984,
    "action": 0,
    "reward": -2.5
  },
  {
    "phase": "TASK",
    "condition": "Cond4",
    "trial_num": 45,
    "trial_length": 5,
    "click_num": 1,
    "RT": 1102,
    "action": 1,
    "reward": -2.6
  },
  {
    "phase": "TASK",
    "condition": "Cond4",
    "trial_num": 45,
    "trial_length": 5,
    "click_num": 2,
    "RT": 1424,
    "action": 1,
    "reward": -3
  },
  {
    "phase": "TASK",
    "condition": "Cond4",
    "trial_num": 45,
    "trial_length": 5,
    "click_num": 3,
    "RT": 2009,
    "action": 1,
    "reward": -2.5
  },
  {
    "phase": "TASK",
    "condition": "Cond4",
    "trial_num": 45,
    "trial_length": 5,
    "click_num": 4,
    "RT": 1375,
    "action": 0,
    "reward": -2.5
  },
  {
    "phase": "TASK",
    "condition": "Cond4",
    "trial_num": 45,
    "trial_length": 5,
    "click_num": 5,
    "RT": 928,
    "action": 0,
    "reward": -2.5
  },
  {
    "phase": "TASK",
    "condition": "Cond4",
    "trial_num": 46,
    "trial_length": 9,
    "click_num": 1,
    "RT": 1301,
    "action": 1,
    "reward": -2.6
  },
  {
    "phase": "TASK",
    "condition": "Cond4",
    "trial_num": 46,
    "trial_length": 9,
    "click_num": 2,
    "RT": 1440,
    "action": 1,
    "reward": -3.3
  },
  {
    "phase": "TASK",
    "condition": "Cond4",
    "trial_num": 46,
    "trial_length": 9,
    "click_num": 3,
    "RT": 1425,
    "action": 1,
    "reward": -2.2
  },
  {
    "phase": "TASK",
    "condition": "Cond4",
    "trial_num": 46,
    "trial_length": 9,
    "click_num": 4,
    "RT": 1312,
    "action": 1,
    "reward": -3.9
  },
  {
    "phase": "TASK",
    "condition": "Cond4",
    "trial_num": 46,
    "trial_length": 9,
    "click_num": 5,
    "RT": 1399,
    "action": 1,
    "reward": -3
  },
  {
    "phase": "TASK",
    "condition": "Cond4",
    "trial_num": 46,
    "trial_length": 9,
    "click_num": 6,
    "RT": 1320,
    "action": 0,
    "reward": -2.2
  },
  {
    "phase": "TASK",
    "condition": "Cond4",
    "trial_num": 46,
    "trial_length": 9,
    "click_num": 7,
    "RT": 1016,
    "action": 0,
    "reward": -2.2
  },
  {
    "phase": "TASK",
    "condition": "Cond4",
    "trial_num": 46,
    "trial_length": 9,
    "click_num": 8,
    "RT": 984,
    "action": 0,
    "reward": -2.2
  },
  {
    "phase": "TASK",
    "condition": "Cond4",
    "trial_num": 46,
    "trial_length": 9,
    "click_num": 9,
    "RT": 976,
    "action": 0,
    "reward": -2.2
  },
  {
    "phase": "TASK",
    "condition": "Cond4",
    "trial_num": 47,
    "trial_length": 5,
    "click_num": 1,
    "RT": 1100,
    "action": 1,
    "reward": -2.8
  },
  {
    "phase": "TASK",
    "condition": "Cond4",
    "trial_num": 47,
    "trial_length": 5,
    "click_num": 2,
    "RT": 1395,
    "action": 1,
    "reward": -3.3
  },
  {
    "phase": "TASK",
    "condition": "Cond4",
    "trial_num": 47,
    "trial_length": 5,
    "click_num": 3,
    "RT": 1199,
    "action": 1,
    "reward": -3.5
  },
  {
    "phase": "TASK",
    "condition": "Cond4",
    "trial_num": 47,
    "trial_length": 5,
    "click_num": 4,
    "RT": 1840,
    "action": 0,
    "reward": -2.8
  },
  {
    "phase": "TASK",
    "condition": "Cond4",
    "trial_num": 47,
    "trial_length": 5,
    "click_num": 5,
    "RT": 1153,
    "action": 0,
    "reward": -2.8
  },
  {
    "phase": "TASK",
    "condition": "Cond4",
    "trial_num": 48,
    "trial_length": 8,
    "click_num": 1,
    "RT": 1556,
    "action": 1,
    "reward": -3
  },
  {
    "phase": "TASK",
    "condition": "Cond4",
    "trial_num": 48,
    "trial_length": 8,
    "click_num": 2,
    "RT": 1336,
    "action": 1,
    "reward": -2.1
  },
  {
    "phase": "TASK",
    "condition": "Cond4",
    "trial_num": 48,
    "trial_length": 8,
    "click_num": 3,
    "RT": 2320,
    "action": 0,
    "reward": -2.1
  },
  {
    "phase": "TASK",
    "condition": "Cond4",
    "trial_num": 48,
    "trial_length": 8,
    "click_num": 4,
    "RT": 887,
    "action": 0,
    "reward": -2.1
  },
  {
    "phase": "TASK",
    "condition": "Cond4",
    "trial_num": 48,
    "trial_length": 8,
    "click_num": 5,
    "RT": 913,
    "action": 0,
    "reward": -2.1
  },
  {
    "phase": "TASK",
    "condition": "Cond4",
    "trial_num": 48,
    "trial_length": 8,
    "click_num": 6,
    "RT": 952,
    "action": 0,
    "reward": -2.1
  },
  {
    "phase": "TASK",
    "condition": "Cond4",
    "trial_num": 48,
    "trial_length": 8,
    "click_num": 7,
    "RT": 967,
    "action": 0,
    "reward": -2.1
  },
  {
    "phase": "TASK",
    "condition": "Cond4",
    "trial_num": 48,
    "trial_length": 8,
    "click_num": 8,
    "RT": 963,
    "action": 0,
    "reward": -2.1
  },
  {
    "phase": "TASK",
    "condition": "Cond4",
    "trial_num": 49,
    "trial_length": 9,
    "click_num": 1,
    "RT": 1368,
    "action": 1,
    "reward": -2.3
  },
  {
    "phase": "TASK",
    "condition": "Cond4",
    "trial_num": 49,
    "trial_length": 9,
    "click_num": 2,
    "RT": 2517,
    "action": 1,
    "reward": -3.2
  },
  {
    "phase": "TASK",
    "condition": "Cond4",
    "trial_num": 49,
    "trial_length": 9,
    "click_num": 3,
    "RT": 1184,
    "action": 1,
    "reward": -2.9
  },
  {
    "phase": "TASK",
    "condition": "Cond4",
    "trial_num": 49,
    "trial_length": 9,
    "click_num": 4,
    "RT": 1040,
    "action": 1,
    "reward": -3.3
  },
  {
    "phase": "TASK",
    "condition": "Cond4",
    "trial_num": 49,
    "trial_length": 9,
    "click_num": 5,
    "RT": 1264,
    "action": 1,
    "reward": -3.4
  },
  {
    "phase": "TASK",
    "condition": "Cond4",
    "trial_num": 49,
    "trial_length": 9,
    "click_num": 6,
    "RT": 928,
    "action": 0,
    "reward": -2.3
  },
  {
    "phase": "TASK",
    "condition": "Cond4",
    "trial_num": 49,
    "trial_length": 9,
    "click_num": 7,
    "RT": 977,
    "action": 0,
    "reward": -2.3
  },
  {
    "phase": "TASK",
    "condition": "Cond4",
    "trial_num": 49,
    "trial_length": 9,
    "click_num": 8,
    "RT": 1017,
    "action": 0,
    "reward": -2.3
  },
  {
    "phase": "TASK",
    "condition": "Cond4",
    "trial_num": 49,
    "trial_length": 9,
    "click_num": 9,
    "RT": 1007,
    "action": 0,
    "reward": -2.3
  },
  {
    "phase": "TASK",
    "condition": "Cond4",
    "trial_num": 50,
    "trial_length": 9,
    "click_num": 1,
    "RT": 1134,
    "action": 1,
    "reward": -2.6
  },
  {
    "phase": "TASK",
    "condition": "Cond4",
    "trial_num": 50,
    "trial_length": 9,
    "click_num": 2,
    "RT": 1135,
    "action": 1,
    "reward": -3.4
  },
  {
    "phase": "TASK",
    "condition": "Cond4",
    "trial_num": 50,
    "trial_length": 9,
    "click_num": 3,
    "RT": 1136,
    "action": 1,
    "reward": -3.1
  },
  {
    "phase": "TASK",
    "condition": "Cond4",
    "trial_num": 50,
    "trial_length": 9,
    "click_num": 4,
    "RT": 1056,
    "action": 1,
    "reward": -3.5
  },
  {
    "phase": "TASK",
    "condition": "Cond4",
    "trial_num": 50,
    "trial_length": 9,
    "click_num": 5,
    "RT": 998,
    "action": 1,
    "reward": -3.5
  },
  {
    "phase": "TASK",
    "condition": "Cond4",
    "trial_num": 50,
    "trial_length": 9,
    "click_num": 6,
    "RT": 2035,
    "action": 0,
    "reward": -2.6
  },
  {
    "phase": "TASK",
    "condition": "Cond4",
    "trial_num": 50,
    "trial_length": 9,
    "click_num": 7,
    "RT": 793,
    "action": 0,
    "reward": -2.6
  },
  {
    "phase": "TASK",
    "condition": "Cond4",
    "trial_num": 50,
    "trial_length": 9,
    "click_num": 8,
    "RT": 982,
    "action": 0,
    "reward": -2.6
  },
  {
    "phase": "TASK",
    "condition": "Cond4",
    "trial_num": 50,
    "trial_length": 9,
    "click_num": 9,
    "RT": 1500,
    "action": 0,
    "reward": -2.6
  },
  {
    "phase": "TASK",
    "condition": "Cond4",
    "trial_num": 51,
    "trial_length": 8,
    "click_num": 1,
    "RT": 1149,
    "action": 1,
    "reward": -3.3
  },
  {
    "phase": "TASK",
    "condition": "Cond4",
    "trial_num": 51,
    "trial_length": 8,
    "click_num": 2,
    "RT": 1366,
    "action": 1,
    "reward": -3.2
  },
  {
    "phase": "TASK",
    "condition": "Cond4",
    "trial_num": 51,
    "trial_length": 8,
    "click_num": 3,
    "RT": 1048,
    "action": 1,
    "reward": -3.3
  },
  {
    "phase": "TASK",
    "condition": "Cond4",
    "trial_num": 51,
    "trial_length": 8,
    "click_num": 4,
    "RT": 1137,
    "action": 1,
    "reward": -3.2
  },
  {
    "phase": "TASK",
    "condition": "Cond4",
    "trial_num": 51,
    "trial_length": 8,
    "click_num": 5,
    "RT": 2409,
    "action": 1,
    "reward": -3.3
  },
  {
    "phase": "TASK",
    "condition": "Cond4",
    "trial_num": 51,
    "trial_length": 8,
    "click_num": 6,
    "RT": 1374,
    "action": 0,
    "reward": -3.2
  },
  {
    "phase": "TASK",
    "condition": "Cond4",
    "trial_num": 51,
    "trial_length": 8,
    "click_num": 7,
    "RT": 891,
    "action": 0,
    "reward": -3.2
  },
  {
    "phase": "TASK",
    "condition": "Cond4",
    "trial_num": 51,
    "trial_length": 8,
    "click_num": 8,
    "RT": 967,
    "action": 0,
    "reward": -3.2
  },
  {
    "phase": "TASK",
    "condition": "Cond4",
    "trial_num": 52,
    "trial_length": 5,
    "click_num": 1,
    "RT": 1365,
    "action": 1,
    "reward": -3.9
  },
  {
    "phase": "TASK",
    "condition": "Cond4",
    "trial_num": 52,
    "trial_length": 5,
    "click_num": 2,
    "RT": 1208,
    "action": 1,
    "reward": -3.2
  },
  {
    "phase": "TASK",
    "condition": "Cond4",
    "trial_num": 52,
    "trial_length": 5,
    "click_num": 3,
    "RT": 1192,
    "action": 1,
    "reward": -3.5
  },
  {
    "phase": "TASK",
    "condition": "Cond4",
    "trial_num": 52,
    "trial_length": 5,
    "click_num": 4,
    "RT": 1432,
    "action": 1,
    "reward": -4
  },
  {
    "phase": "TASK",
    "condition": "Cond4",
    "trial_num": 52,
    "trial_length": 5,
    "click_num": 5,
    "RT": 1136,
    "action": 1,
    "reward": -3.6
  },
  {
    "phase": "TASK",
    "condition": "Cond4",
    "trial_num": 53,
    "trial_length": 5,
    "click_num": 1,
    "RT": 1009,
    "action": 1,
    "reward": -2.4
  },
  {
    "phase": "TASK",
    "condition": "Cond4",
    "trial_num": 53,
    "trial_length": 5,
    "click_num": 2,
    "RT": 1568,
    "action": 1,
    "reward": -3.1
  },
  {
    "phase": "TASK",
    "condition": "Cond4",
    "trial_num": 53,
    "trial_length": 5,
    "click_num": 3,
    "RT": 1503,
    "action": 1,
    "reward": -3.5
  },
  {
    "phase": "TASK",
    "condition": "Cond4",
    "trial_num": 53,
    "trial_length": 5,
    "click_num": 4,
    "RT": 1411,
    "action": 0,
    "reward": -2.4
  },
  {
    "phase": "TASK",
    "condition": "Cond4",
    "trial_num": 53,
    "trial_length": 5,
    "click_num": 5,
    "RT": 1072,
    "action": 0,
    "reward": -2.4
  },
  {
    "phase": "TASK",
    "condition": "Cond4",
    "trial_num": 54,
    "trial_length": 8,
    "click_num": 1,
    "RT": 1101,
    "action": 1,
    "reward": -3.8
  },
  {
    "phase": "TASK",
    "condition": "Cond4",
    "trial_num": 54,
    "trial_length": 8,
    "click_num": 2,
    "RT": 1128,
    "action": 1,
    "reward": -3.1
  },
  {
    "phase": "TASK",
    "condition": "Cond4",
    "trial_num": 54,
    "trial_length": 8,
    "click_num": 3,
    "RT": 1019,
    "action": 1,
    "reward": -2.5
  },
  {
    "phase": "TASK",
    "condition": "Cond4",
    "trial_num": 54,
    "trial_length": 8,
    "click_num": 4,
    "RT": 1399,
    "action": 1,
    "reward": -3.1
  },
  {
    "phase": "TASK",
    "condition": "Cond4",
    "trial_num": 54,
    "trial_length": 8,
    "click_num": 5,
    "RT": 1390,
    "action": 0,
    "reward": -2.5
  },
  {
    "phase": "TASK",
    "condition": "Cond4",
    "trial_num": 54,
    "trial_length": 8,
    "click_num": 6,
    "RT": 1032,
    "action": 0,
    "reward": -2.5
  },
  {
    "phase": "TASK",
    "condition": "Cond4",
    "trial_num": 54,
    "trial_length": 8,
    "click_num": 7,
    "RT": 866,
    "action": 0,
    "reward": -2.5
  },
  {
    "phase": "TASK",
    "condition": "Cond4",
    "trial_num": 54,
    "trial_length": 8,
    "click_num": 8,
    "RT": 862,
    "action": 0,
    "reward": -2.5
  },
  {
    "phase": "TASK",
    "condition": "Cond4",
    "trial_num": 55,
    "trial_length": 7,
    "click_num": 1,
    "RT": 1255,
    "action": 1,
    "reward": -2.8
  },
  {
    "phase": "TASK",
    "condition": "Cond4",
    "trial_num": 55,
    "trial_length": 7,
    "click_num": 2,
    "RT": 1440,
    "action": 1,
    "reward": -3.2
  },
  {
    "phase": "TASK",
    "condition": "Cond4",
    "trial_num": 55,
    "trial_length": 7,
    "click_num": 3,
    "RT": 1151,
    "action": 1,
    "reward": -3.3
  },
  {
    "phase": "TASK",
    "condition": "Cond4",
    "trial_num": 55,
    "trial_length": 7,
    "click_num": 4,
    "RT": 1033,
    "action": 1,
    "reward": -2.6
  },
  {
    "phase": "TASK",
    "condition": "Cond4",
    "trial_num": 55,
    "trial_length": 7,
    "click_num": 5,
    "RT": 2416,
    "action": 0,
    "reward": -2.6
  },
  {
    "phase": "TASK",
    "condition": "Cond4",
    "trial_num": 55,
    "trial_length": 7,
    "click_num": 6,
    "RT": 898,
    "action": 0,
    "reward": -2.6
  },
  {
    "phase": "TASK",
    "condition": "Cond4",
    "trial_num": 55,
    "trial_length": 7,
    "click_num": 7,
    "RT": 991,
    "action": 0,
    "reward": -2.6
  },
  {
    "phase": "TASK",
    "condition": "Cond4",
    "trial_num": 56,
    "trial_length": 10,
    "click_num": 1,
    "RT": 1270,
    "action": 1,
    "reward": -2.4
  },
  {
    "phase": "TASK",
    "condition": "Cond4",
    "trial_num": 56,
    "trial_length": 10,
    "click_num": 2,
    "RT": 1602,
    "action": 1,
    "reward": -4.5
  },
  {
    "phase": "TASK",
    "condition": "Cond4",
    "trial_num": 56,
    "trial_length": 10,
    "click_num": 3,
    "RT": 1183,
    "action": 1,
    "reward": -2.4
  },
  {
    "phase": "TASK",
    "condition": "Cond4",
    "trial_num": 56,
    "trial_length": 10,
    "click_num": 4,
    "RT": 1425,
    "action": 1,
    "reward": -3.8
  },
  {
    "phase": "TASK",
    "condition": "Cond4",
    "trial_num": 56,
    "trial_length": 10,
    "click_num": 5,
    "RT": 1305,
    "action": 0,
    "reward": -2.4
  },
  {
    "phase": "TASK",
    "condition": "Cond4",
    "trial_num": 56,
    "trial_length": 10,
    "click_num": 6,
    "RT": 1079,
    "action": 0,
    "reward": -2.4
  },
  {
    "phase": "TASK",
    "condition": "Cond4",
    "trial_num": 56,
    "trial_length": 10,
    "click_num": 7,
    "RT": 1106,
    "action": 0,
    "reward": -2.4
  },
  {
    "phase": "TASK",
    "condition": "Cond4",
    "trial_num": 56,
    "trial_length": 10,
    "click_num": 8,
    "RT": 1079,
    "action": 0,
    "reward": -2.4
  },
  {
    "phase": "TASK",
    "condition": "Cond4",
    "trial_num": 56,
    "trial_length": 10,
    "click_num": 9,
    "RT": 1023,
    "action": 0,
    "reward": -2.4
  },
  {
    "phase": "TASK",
    "condition": "Cond4",
    "trial_num": 56,
    "trial_length": 10,
    "click_num": 10,
    "RT": 975,
    "action": 0,
    "reward": -2.4
  },
  {
    "phase": "TASK",
    "condition": "Cond4",
    "trial_num": 57,
    "trial_length": 7,
    "click_num": 1,
    "RT": 1044,
    "action": 1,
    "reward": -2.4
  },
  {
    "phase": "TASK",
    "condition": "Cond4",
    "trial_num": 57,
    "trial_length": 7,
    "click_num": 2,
    "RT": 1527,
    "action": 1,
    "reward": -3.4
  },
  {
    "phase": "TASK",
    "condition": "Cond4",
    "trial_num": 57,
    "trial_length": 7,
    "click_num": 3,
    "RT": 1519,
    "action": 1,
    "reward": -4.1
  },
  {
    "phase": "TASK",
    "condition": "Cond4",
    "trial_num": 57,
    "trial_length": 7,
    "click_num": 4,
    "RT": 1480,
    "action": 0,
    "reward": -2.4
  },
  {
    "phase": "TASK",
    "condition": "Cond4",
    "trial_num": 57,
    "trial_length": 7,
    "click_num": 5,
    "RT": 904,
    "action": 0,
    "reward": -2.4
  },
  {
    "phase": "TASK",
    "condition": "Cond4",
    "trial_num": 57,
    "trial_length": 7,
    "click_num": 6,
    "RT": 815,
    "action": 0,
    "reward": -2.4
  },
  {
    "phase": "TASK",
    "condition": "Cond4",
    "trial_num": 57,
    "trial_length": 7,
    "click_num": 7,
    "RT": 888,
    "action": 0,
    "reward": -2.4
  },
  {
    "phase": "TASK",
    "condition": "Cond4",
    "trial_num": 58,
    "trial_length": 10,
    "click_num": 1,
    "RT": 1022,
    "action": 1,
    "reward": -3.2
  },
  {
    "phase": "TASK",
    "condition": "Cond4",
    "trial_num": 58,
    "trial_length": 10,
    "click_num": 2,
    "RT": 1367,
    "action": 1,
    "reward": -2.3
  },
  {
    "phase": "TASK",
    "condition": "Cond4",
    "trial_num": 58,
    "trial_length": 10,
    "click_num": 3,
    "RT": 1215,
    "action": 1,
    "reward": -3.6
  },
  {
    "phase": "TASK",
    "condition": "Cond4",
    "trial_num": 58,
    "trial_length": 10,
    "click_num": 4,
    "RT": 1641,
    "action": 1,
    "reward": -3.5
  },
  {
    "phase": "TASK",
    "condition": "Cond4",
    "trial_num": 58,
    "trial_length": 10,
    "click_num": 5,
    "RT": 1649,
    "action": 1,
    "reward": -2.6
  },
  {
    "phase": "TASK",
    "condition": "Cond4",
    "trial_num": 58,
    "trial_length": 10,
    "click_num": 6,
    "RT": 1312,
    "action": 0,
    "reward": -2.3
  },
  {
    "phase": "TASK",
    "condition": "Cond4",
    "trial_num": 58,
    "trial_length": 10,
    "click_num": 7,
    "RT": 946,
    "action": 0,
    "reward": -2.3
  },
  {
    "phase": "TASK",
    "condition": "Cond4",
    "trial_num": 58,
    "trial_length": 10,
    "click_num": 8,
    "RT": 847,
    "action": 0,
    "reward": -2.3
  },
  {
    "phase": "TASK",
    "condition": "Cond4",
    "trial_num": 58,
    "trial_length": 10,
    "click_num": 9,
    "RT": 974,
    "action": 0,
    "reward": -2.3
  },
  {
    "phase": "TASK",
    "condition": "Cond4",
    "trial_num": 58,
    "trial_length": 10,
    "click_num": 10,
    "RT": 1015,
    "action": 0,
    "reward": -2.3
  },
  {
    "phase": "TASK",
    "condition": "Cond4",
    "trial_num": 59,
    "trial_length": 8,
    "click_num": 1,
    "RT": 992,
    "action": 1,
    "reward": -2.7
  },
  {
    "phase": "TASK",
    "condition": "Cond4",
    "trial_num": 59,
    "trial_length": 8,
    "click_num": 2,
    "RT": 954,
    "action": 1,
    "reward": -3.4
  },
  {
    "phase": "TASK",
    "condition": "Cond4",
    "trial_num": 59,
    "trial_length": 8,
    "click_num": 3,
    "RT": 913,
    "action": 1,
    "reward": -2.3
  },
  {
    "phase": "TASK",
    "condition": "Cond4",
    "trial_num": 59,
    "trial_length": 8,
    "click_num": 4,
    "RT": 3030,
    "action": 0,
    "reward": -2.3
  },
  {
    "phase": "TASK",
    "condition": "Cond4",
    "trial_num": 59,
    "trial_length": 8,
    "click_num": 5,
    "RT": 832,
    "action": 0,
    "reward": -2.3
  },
  {
    "phase": "TASK",
    "condition": "Cond4",
    "trial_num": 59,
    "trial_length": 8,
    "click_num": 6,
    "RT": 946,
    "action": 0,
    "reward": -2.3
  },
  {
    "phase": "TASK",
    "condition": "Cond4",
    "trial_num": 59,
    "trial_length": 8,
    "click_num": 7,
    "RT": 934,
    "action": 0,
    "reward": -2.3
  },
  {
    "phase": "TASK",
    "condition": "Cond4",
    "trial_num": 59,
    "trial_length": 8,
    "click_num": 8,
    "RT": 888,
    "action": 0,
    "reward": -2.3
  },
  {
    "phase": "TASK",
    "condition": "Cond4",
    "trial_num": 60,
    "trial_length": 5,
    "click_num": 1,
    "RT": 2658,
    "action": 1,
    "reward": -2.3
  },
  {
    "phase": "TASK",
    "condition": "Cond4",
    "trial_num": 60,
    "trial_length": 5,
    "click_num": 2,
    "RT": 2809,
    "action": 1,
    "reward": -2
  },
  {
    "phase": "TASK",
    "condition": "Cond4",
    "trial_num": 60,
    "trial_length": 5,
    "click_num": 3,
    "RT": 1637,
    "action": 0,
    "reward": -2
  },
  {
    "phase": "TASK",
    "condition": "Cond4",
    "trial_num": 60,
    "trial_length": 5,
    "click_num": 4,
    "RT": 1257,
    "action": 0,
    "reward": -2
  },
  {
    "phase": "TASK",
    "condition": "Cond4",
    "trial_num": 60,
    "trial_length": 5,
    "click_num": 5,
    "RT": 920,
    "action": 0,
    "reward": -2
  },
  {
    "phase": "TASK",
    "condition": "Cond4",
    "trial_num": 61,
    "trial_length": 6,
    "click_num": 1,
    "RT": 1167,
    "action": 1,
    "reward": -3.1
  },
  {
    "phase": "TASK",
    "condition": "Cond4",
    "trial_num": 61,
    "trial_length": 6,
    "click_num": 2,
    "RT": 1416,
    "action": 1,
    "reward": -3.5
  },
  {
    "phase": "TASK",
    "condition": "Cond4",
    "trial_num": 61,
    "trial_length": 6,
    "click_num": 3,
    "RT": 1289,
    "action": 1,
    "reward": -3
  },
  {
    "phase": "TASK",
    "condition": "Cond4",
    "trial_num": 61,
    "trial_length": 6,
    "click_num": 4,
    "RT": 1334,
    "action": 1,
    "reward": -3.2
  },
  {
    "phase": "TASK",
    "condition": "Cond4",
    "trial_num": 61,
    "trial_length": 6,
    "click_num": 5,
    "RT": 1393,
    "action": 1,
    "reward": -2.5
  },
  {
    "phase": "TASK",
    "condition": "Cond4",
    "trial_num": 61,
    "trial_length": 6,
    "click_num": 6,
    "RT": 1976,
    "action": 0,
    "reward": -2.5
  },
  {
    "phase": "TASK",
    "condition": "Cond4",
    "trial_num": 62,
    "trial_length": 6,
    "click_num": 1,
    "RT": 1582,
    "action": 1,
    "reward": -3.8
  },
  {
    "phase": "TASK",
    "condition": "Cond4",
    "trial_num": 62,
    "trial_length": 6,
    "click_num": 2,
    "RT": 1305,
    "action": 1,
    "reward": -2.1
  },
  {
    "phase": "TASK",
    "condition": "Cond4",
    "trial_num": 62,
    "trial_length": 6,
    "click_num": 3,
    "RT": 1719,
    "action": 0,
    "reward": -2.1
  },
  {
    "phase": "TASK",
    "condition": "Cond4",
    "trial_num": 62,
    "trial_length": 6,
    "click_num": 4,
    "RT": 872,
    "action": 0,
    "reward": -2.1
  },
  {
    "phase": "TASK",
    "condition": "Cond4",
    "trial_num": 62,
    "trial_length": 6,
    "click_num": 5,
    "RT": 992,
    "action": 0,
    "reward": -2.1
  },
  {
    "phase": "TASK",
    "condition": "Cond4",
    "trial_num": 62,
    "trial_length": 6,
    "click_num": 6,
    "RT": 1000,
    "action": 0,
    "reward": -2.1
  },
  {
    "phase": "TASK",
    "condition": "Cond4",
    "trial_num": 63,
    "trial_length": 7,
    "click_num": 1,
    "RT": 1169,
    "action": 1,
    "reward": -3.5
  },
  {
    "phase": "TASK",
    "condition": "Cond4",
    "trial_num": 63,
    "trial_length": 7,
    "click_num": 2,
    "RT": 1297,
    "action": 1,
    "reward": -3.4
  },
  {
    "phase": "TASK",
    "condition": "Cond4",
    "trial_num": 63,
    "trial_length": 7,
    "click_num": 3,
    "RT": 1214,
    "action": 1,
    "reward": -3
  },
  {
    "phase": "TASK",
    "condition": "Cond4",
    "trial_num": 63,
    "trial_length": 7,
    "click_num": 4,
    "RT": 1128,
    "action": 1,
    "reward": -2.8
  },
  {
    "phase": "TASK",
    "condition": "Cond4",
    "trial_num": 63,
    "trial_length": 7,
    "click_num": 5,
    "RT": 1761,
    "action": 1,
    "reward": -3.5
  },
  {
    "phase": "TASK",
    "condition": "Cond4",
    "trial_num": 63,
    "trial_length": 7,
    "click_num": 6,
    "RT": 1497,
    "action": 0,
    "reward": -2.8
  },
  {
    "phase": "TASK",
    "condition": "Cond4",
    "trial_num": 63,
    "trial_length": 7,
    "click_num": 7,
    "RT": 952,
    "action": 0,
    "reward": -2.8
  },
  {
    "phase": "TASK",
    "condition": "Cond4",
    "trial_num": 64,
    "trial_length": 7,
    "click_num": 1,
    "RT": 1306,
    "action": 1,
    "reward": -2.5
  },
  {
    "phase": "TASK",
    "condition": "Cond4",
    "trial_num": 64,
    "trial_length": 7,
    "click_num": 2,
    "RT": 1232,
    "action": 1,
    "reward": -3.3
  },
  {
    "phase": "TASK",
    "condition": "Cond4",
    "trial_num": 64,
    "trial_length": 7,
    "click_num": 3,
    "RT": 1319,
    "action": 1,
    "reward": -2.6
  },
  {
    "phase": "TASK",
    "condition": "Cond4",
    "trial_num": 64,
    "trial_length": 7,
    "click_num": 4,
    "RT": 2835,
    "action": 1,
    "reward": -3.5
  },
  {
    "phase": "TASK",
    "condition": "Cond4",
    "trial_num": 64,
    "trial_length": 7,
    "click_num": 5,
    "RT": 1104,
    "action": 0,
    "reward": -2.5
  },
  {
    "phase": "TASK",
    "condition": "Cond4",
    "trial_num": 64,
    "trial_length": 7,
    "click_num": 6,
    "RT": 960,
    "action": 0,
    "reward": -2.5
  },
  {
    "phase": "TASK",
    "condition": "Cond4",
    "trial_num": 64,
    "trial_length": 7,
    "click_num": 7,
    "RT": 1006,
    "action": 0,
    "reward": -2.5
  },
  {
    "phase": "TASK",
    "condition": "Cond4",
    "trial_num": 65,
    "trial_length": 10,
    "click_num": 1,
    "RT": 1101,
    "action": 1,
    "reward": -3.6
  },
  {
    "phase": "TASK",
    "condition": "Cond4",
    "trial_num": 65,
    "trial_length": 10,
    "click_num": 2,
    "RT": 1242,
    "action": 1,
    "reward": -3.6
  },
  {
    "phase": "TASK",
    "condition": "Cond4",
    "trial_num": 65,
    "trial_length": 10,
    "click_num": 3,
    "RT": 1177,
    "action": 1,
    "reward": -2.2
  },
  {
    "phase": "TASK",
    "condition": "Cond4",
    "trial_num": 65,
    "trial_length": 10,
    "click_num": 4,
    "RT": 1750,
    "action": 0,
    "reward": -2.2
  },
  {
    "phase": "TASK",
    "condition": "Cond4",
    "trial_num": 65,
    "trial_length": 10,
    "click_num": 5,
    "RT": 1074,
    "action": 0,
    "reward": -2.2
  },
  {
    "phase": "TASK",
    "condition": "Cond4",
    "trial_num": 65,
    "trial_length": 10,
    "click_num": 6,
    "RT": 1040,
    "action": 0,
    "reward": -2.2
  },
  {
    "phase": "TASK",
    "condition": "Cond4",
    "trial_num": 65,
    "trial_length": 10,
    "click_num": 7,
    "RT": 1077,
    "action": 0,
    "reward": -2.2
  },
  {
    "phase": "TASK",
    "condition": "Cond4",
    "trial_num": 65,
    "trial_length": 10,
    "click_num": 8,
    "RT": 1000,
    "action": 0,
    "reward": -2.2
  },
  {
    "phase": "TASK",
    "condition": "Cond4",
    "trial_num": 65,
    "trial_length": 10,
    "click_num": 9,
    "RT": 1011,
    "action": 0,
    "reward": -2.2
  },
  {
    "phase": "TASK",
    "condition": "Cond4",
    "trial_num": 65,
    "trial_length": 10,
    "click_num": 10,
    "RT": 1008,
    "action": 0,
    "reward": -2.2
  },
  {
    "phase": "TASK",
    "condition": "Cond4",
    "trial_num": 66,
    "trial_length": 5,
    "click_num": 1,
    "RT": 1262,
    "action": 1,
    "reward": -2.3
  },
  {
    "phase": "TASK",
    "condition": "Cond4",
    "trial_num": 66,
    "trial_length": 5,
    "click_num": 2,
    "RT": 2688,
    "action": 1,
    "reward": -2.7
  },
  {
    "phase": "TASK",
    "condition": "Cond4",
    "trial_num": 66,
    "trial_length": 5,
    "click_num": 3,
    "RT": 1298,
    "action": 0,
    "reward": -2.3
  },
  {
    "phase": "TASK",
    "condition": "Cond4",
    "trial_num": 66,
    "trial_length": 5,
    "click_num": 4,
    "RT": 885,
    "action": 0,
    "reward": -2.3
  },
  {
    "phase": "TASK",
    "condition": "Cond4",
    "trial_num": 66,
    "trial_length": 5,
    "click_num": 5,
    "RT": 912,
    "action": 0,
    "reward": -2.3
  },
  {
    "phase": "TASK",
    "condition": "Cond4",
    "trial_num": 67,
    "trial_length": 5,
    "click_num": 1,
    "RT": 987,
    "action": 1,
    "reward": -2.8
  },
  {
    "phase": "TASK",
    "condition": "Cond4",
    "trial_num": 67,
    "trial_length": 5,
    "click_num": 2,
    "RT": 1457,
    "action": 1,
    "reward": -3.6
  },
  {
    "phase": "TASK",
    "condition": "Cond4",
    "trial_num": 67,
    "trial_length": 5,
    "click_num": 3,
    "RT": 1221,
    "action": 1,
    "reward": -3.7
  },
  {
    "phase": "TASK",
    "condition": "Cond4",
    "trial_num": 67,
    "trial_length": 5,
    "click_num": 4,
    "RT": 2009,
    "action": 0,
    "reward": -2.8
  },
  {
    "phase": "TASK",
    "condition": "Cond4",
    "trial_num": 67,
    "trial_length": 5,
    "click_num": 5,
    "RT": 1031,
    "action": 0,
    "reward": -2.8
  },
  {
    "phase": "TASK",
    "condition": "Cond4",
    "trial_num": 68,
    "trial_length": 9,
    "click_num": 1,
    "RT": 1054,
    "action": 1,
    "reward": -2.8
  },
  {
    "phase": "TASK",
    "condition": "Cond4",
    "trial_num": 68,
    "trial_length": 9,
    "click_num": 2,
    "RT": 1385,
    "action": 1,
    "reward": -3.6
  },
  {
    "phase": "TASK",
    "condition": "Cond4",
    "trial_num": 68,
    "trial_length": 9,
    "click_num": 3,
    "RT": 1104,
    "action": 1,
    "reward": -3.5
  },
  {
    "phase": "TASK",
    "condition": "Cond4",
    "trial_num": 68,
    "trial_length": 9,
    "click_num": 4,
    "RT": 1169,
    "action": 1,
    "reward": -3.8
  },
  {
    "phase": "TASK",
    "condition": "Cond4",
    "trial_num": 68,
    "trial_length": 9,
    "click_num": 5,
    "RT": 1359,
    "action": 1,
    "reward": -2.7
  },
  {
    "phase": "TASK",
    "condition": "Cond4",
    "trial_num": 68,
    "trial_length": 9,
    "click_num": 6,
    "RT": 1474,
    "action": 0,
    "reward": -2.7
  },
  {
    "phase": "TASK",
    "condition": "Cond4",
    "trial_num": 68,
    "trial_length": 9,
    "click_num": 7,
    "RT": 1112,
    "action": 0,
    "reward": -2.7
  },
  {
    "phase": "TASK",
    "condition": "Cond4",
    "trial_num": 68,
    "trial_length": 9,
    "click_num": 8,
    "RT": 1013,
    "action": 0,
    "reward": -2.7
  },
  {
    "phase": "TASK",
    "condition": "Cond4",
    "trial_num": 68,
    "trial_length": 9,
    "click_num": 9,
    "RT": 1048,
    "action": 0,
    "reward": -2.7
  },
  {
    "phase": "TASK",
    "condition": "Cond4",
    "trial_num": 69,
    "trial_length": 6,
    "click_num": 1,
    "RT": 920,
    "action": 1,
    "reward": -3.9
  },
  {
    "phase": "TASK",
    "condition": "Cond4",
    "trial_num": 69,
    "trial_length": 6,
    "click_num": 2,
    "RT": 1209,
    "action": 1,
    "reward": -4.9
  },
  {
    "phase": "TASK",
    "condition": "Cond4",
    "trial_num": 69,
    "trial_length": 6,
    "click_num": 3,
    "RT": 1297,
    "action": 1,
    "reward": -2.3
  },
  {
    "phase": "TASK",
    "condition": "Cond4",
    "trial_num": 69,
    "trial_length": 6,
    "click_num": 4,
    "RT": 2662,
    "action": 0,
    "reward": -2.3
  },
  {
    "phase": "TASK",
    "condition": "Cond4",
    "trial_num": 69,
    "trial_length": 6,
    "click_num": 5,
    "RT": 936,
    "action": 0,
    "reward": -2.3
  },
  {
    "phase": "TASK",
    "condition": "Cond4",
    "trial_num": 69,
    "trial_length": 6,
    "click_num": 6,
    "RT": 960,
    "action": 0,
    "reward": -2.3
  },
  {
    "phase": "TASK",
    "condition": "Cond4",
    "trial_num": 70,
    "trial_length": 7,
    "click_num": 1,
    "RT": 1063,
    "action": 1,
    "reward": -3.8
  },
  {
    "phase": "TASK",
    "condition": "Cond4",
    "trial_num": 70,
    "trial_length": 7,
    "click_num": 2,
    "RT": 1231,
    "action": 1,
    "reward": -3.9
  },
  {
    "phase": "TASK",
    "condition": "Cond4",
    "trial_num": 70,
    "trial_length": 7,
    "click_num": 3,
    "RT": 1244,
    "action": 1,
    "reward": -3.2
  },
  {
    "phase": "TASK",
    "condition": "Cond4",
    "trial_num": 70,
    "trial_length": 7,
    "click_num": 4,
    "RT": 1438,
    "action": 1,
    "reward": -3.4
  },
  {
    "phase": "TASK",
    "condition": "Cond4",
    "trial_num": 70,
    "trial_length": 7,
    "click_num": 5,
    "RT": 1614,
    "action": 1,
    "reward": -3.2
  },
  {
    "phase": "TASK",
    "condition": "Cond4",
    "trial_num": 70,
    "trial_length": 7,
    "click_num": 6,
    "RT": 1367,
    "action": 1,
    "reward": -4.5
  },
  {
    "phase": "TASK",
    "condition": "Cond4",
    "trial_num": 70,
    "trial_length": 7,
    "click_num": 7,
    "RT": 1268,
    "action": 1,
    "reward": -2.9
  },
  {
    "phase": "TASK",
    "condition": "Cond4",
    "trial_num": 71,
    "trial_length": 9,
    "click_num": 1,
    "RT": 1119,
    "action": 1,
    "reward": -3
  },
  {
    "phase": "TASK",
    "condition": "Cond4",
    "trial_num": 71,
    "trial_length": 9,
    "click_num": 2,
    "RT": 1472,
    "action": 1,
    "reward": -2.8
  },
  {
    "phase": "TASK",
    "condition": "Cond4",
    "trial_num": 71,
    "trial_length": 9,
    "click_num": 3,
    "RT": 1255,
    "action": 1,
    "reward": -2.8
  },
  {
    "phase": "TASK",
    "condition": "Cond4",
    "trial_num": 71,
    "trial_length": 9,
    "click_num": 4,
    "RT": 1272,
    "action": 1,
    "reward": -2.9
  },
  {
    "phase": "TASK",
    "condition": "Cond4",
    "trial_num": 71,
    "trial_length": 9,
    "click_num": 5,
    "RT": 1416,
    "action": 1,
    "reward": -2
  },
  {
    "phase": "TASK",
    "condition": "Cond4",
    "trial_num": 71,
    "trial_length": 9,
    "click_num": 6,
    "RT": 1626,
    "action": 0,
    "reward": -2
  },
  {
    "phase": "TASK",
    "condition": "Cond4",
    "trial_num": 71,
    "trial_length": 9,
    "click_num": 7,
    "RT": 862,
    "action": 0,
    "reward": -2
  },
  {
    "phase": "TASK",
    "condition": "Cond4",
    "trial_num": 71,
    "trial_length": 9,
    "click_num": 8,
    "RT": 944,
    "action": 0,
    "reward": -2
  },
  {
    "phase": "TASK",
    "condition": "Cond4",
    "trial_num": 71,
    "trial_length": 9,
    "click_num": 9,
    "RT": 1059,
    "action": 0,
    "reward": -2
  },
  {
    "phase": "TASK",
    "condition": "Cond4",
    "trial_num": 72,
    "trial_length": 9,
    "click_num": 1,
    "RT": 1279,
    "action": 1,
    "reward": -2.9
  },
  {
    "phase": "TASK",
    "condition": "Cond4",
    "trial_num": 72,
    "trial_length": 9,
    "click_num": 2,
    "RT": 1407,
    "action": 1,
    "reward": -3.2
  },
  {
    "phase": "TASK",
    "condition": "Cond4",
    "trial_num": 72,
    "trial_length": 9,
    "click_num": 3,
    "RT": 1171,
    "action": 1,
    "reward": -3.4
  },
  {
    "phase": "TASK",
    "condition": "Cond4",
    "trial_num": 72,
    "trial_length": 9,
    "click_num": 4,
    "RT": 1142,
    "action": 1,
    "reward": -2.4
  },
  {
    "phase": "TASK",
    "condition": "Cond4",
    "trial_num": 72,
    "trial_length": 9,
    "click_num": 5,
    "RT": 2286,
    "action": 1,
    "reward": -3.2
  },
  {
    "phase": "TASK",
    "condition": "Cond4",
    "trial_num": 72,
    "trial_length": 9,
    "click_num": 6,
    "RT": 1385,
    "action": 0,
    "reward": -2.4
  },
  {
    "phase": "TASK",
    "condition": "Cond4",
    "trial_num": 72,
    "trial_length": 9,
    "click_num": 7,
    "RT": 930,
    "action": 0,
    "reward": -2.4
  },
  {
    "phase": "TASK",
    "condition": "Cond4",
    "trial_num": 72,
    "trial_length": 9,
    "click_num": 8,
    "RT": 1030,
    "action": 0,
    "reward": -2.4
  },
  {
    "phase": "TASK",
    "condition": "Cond4",
    "trial_num": 72,
    "trial_length": 9,
    "click_num": 9,
    "RT": 879,
    "action": 0,
    "reward": -2.4
  },
  {
    "phase": "TASK",
    "condition": "Cond4",
    "trial_num": 73,
    "trial_length": 10,
    "click_num": 1,
    "RT": 1101,
    "action": 1,
    "reward": -3.6
  },
  {
    "phase": "TASK",
    "condition": "Cond4",
    "trial_num": 73,
    "trial_length": 10,
    "click_num": 2,
    "RT": 1129,
    "action": 1,
    "reward": -2.8
  },
  {
    "phase": "TASK",
    "condition": "Cond4",
    "trial_num": 73,
    "trial_length": 10,
    "click_num": 3,
    "RT": 1011,
    "action": 1,
    "reward": -3.7
  },
  {
    "phase": "TASK",
    "condition": "Cond4",
    "trial_num": 73,
    "trial_length": 10,
    "click_num": 4,
    "RT": 1008,
    "action": 1,
    "reward": -3.6
  },
  {
    "phase": "TASK",
    "condition": "Cond4",
    "trial_num": 73,
    "trial_length": 10,
    "click_num": 5,
    "RT": 966,
    "action": 1,
    "reward": -3.6
  },
  {
    "phase": "TASK",
    "condition": "Cond4",
    "trial_num": 73,
    "trial_length": 10,
    "click_num": 6,
    "RT": 1199,
    "action": 1,
    "reward": -2.6
  },
  {
    "phase": "TASK",
    "condition": "Cond4",
    "trial_num": 73,
    "trial_length": 10,
    "click_num": 7,
    "RT": 1916,
    "action": 0,
    "reward": -2.6
  },
  {
    "phase": "TASK",
    "condition": "Cond4",
    "trial_num": 73,
    "trial_length": 10,
    "click_num": 8,
    "RT": 934,
    "action": 0,
    "reward": -2.6
  },
  {
    "phase": "TASK",
    "condition": "Cond4",
    "trial_num": 73,
    "trial_length": 10,
    "click_num": 9,
    "RT": 951,
    "action": 0,
    "reward": -2.6
  },
  {
    "phase": "TASK",
    "condition": "Cond4",
    "trial_num": 73,
    "trial_length": 10,
    "click_num": 10,
    "RT": 1423,
    "action": 0,
    "reward": -2.6
  },
  {
    "phase": "TASK",
    "condition": "Cond4",
    "trial_num": 74,
    "trial_length": 8,
    "click_num": 1,
    "RT": 1008,
    "action": 1,
    "reward": -3.4
  },
  {
    "phase": "TASK",
    "condition": "Cond4",
    "trial_num": 74,
    "trial_length": 8,
    "click_num": 2,
    "RT": 1247,
    "action": 1,
    "reward": -2.6
  },
  {
    "phase": "TASK",
    "condition": "Cond4",
    "trial_num": 74,
    "trial_length": 8,
    "click_num": 3,
    "RT": 1247,
    "action": 1,
    "reward": -2.2
  },
  {
    "phase": "TASK",
    "condition": "Cond4",
    "trial_num": 74,
    "trial_length": 8,
    "click_num": 4,
    "RT": 1704,
    "action": 0,
    "reward": -2.2
  },
  {
    "phase": "TASK",
    "condition": "Cond4",
    "trial_num": 74,
    "trial_length": 8,
    "click_num": 5,
    "RT": 848,
    "action": 0,
    "reward": -2.2
  },
  {
    "phase": "TASK",
    "condition": "Cond4",
    "trial_num": 74,
    "trial_length": 8,
    "click_num": 6,
    "RT": 856,
    "action": 0,
    "reward": -2.2
  },
  {
    "phase": "TASK",
    "condition": "Cond4",
    "trial_num": 74,
    "trial_length": 8,
    "click_num": 7,
    "RT": 1055,
    "action": 0,
    "reward": -2.2
  },
  {
    "phase": "TASK",
    "condition": "Cond4",
    "trial_num": 74,
    "trial_length": 8,
    "click_num": 8,
    "RT": 1032,
    "action": 0,
    "reward": -2.2
  },
  {
    "phase": "TASK",
    "condition": "Cond4",
    "trial_num": 75,
    "trial_length": 6,
    "click_num": 1,
    "RT": 1245,
    "action": 1,
    "reward": -4
  },
  {
    "phase": "TASK",
    "condition": "Cond4",
    "trial_num": 75,
    "trial_length": 6,
    "click_num": 2,
    "RT": 1298,
    "action": 1,
    "reward": -3
  },
  {
    "phase": "TASK",
    "condition": "Cond4",
    "trial_num": 75,
    "trial_length": 6,
    "click_num": 3,
    "RT": 1297,
    "action": 1,
    "reward": -2.9
  },
  {
    "phase": "TASK",
    "condition": "Cond4",
    "trial_num": 75,
    "trial_length": 6,
    "click_num": 4,
    "RT": 1535,
    "action": 1,
    "reward": -3.9
  },
  {
    "phase": "TASK",
    "condition": "Cond4",
    "trial_num": 75,
    "trial_length": 6,
    "click_num": 5,
    "RT": 1368,
    "action": 0,
    "reward": -2.9
  },
  {
    "phase": "TASK",
    "condition": "Cond4",
    "trial_num": 75,
    "trial_length": 6,
    "click_num": 6,
    "RT": 1225,
    "action": 0,
    "reward": -2.9
  },
  {
    "phase": "TASK",
    "condition": "Cond4",
    "trial_num": 76,
    "trial_length": 10,
    "click_num": 1,
    "RT": 1294,
    "action": 1,
    "reward": -3.2
  },
  {
    "phase": "TASK",
    "condition": "Cond4",
    "trial_num": 76,
    "trial_length": 10,
    "click_num": 2,
    "RT": 1240,
    "action": 1,
    "reward": -2.5
  },
  {
    "phase": "TASK",
    "condition": "Cond4",
    "trial_num": 76,
    "trial_length": 10,
    "click_num": 3,
    "RT": 1569,
    "action": 1,
    "reward": -2.3
  },
  {
    "phase": "TASK",
    "condition": "Cond4",
    "trial_num": 76,
    "trial_length": 10,
    "click_num": 4,
    "RT": 1502,
    "action": 1,
    "reward": -3.3
  },
  {
    "phase": "TASK",
    "condition": "Cond4",
    "trial_num": 76,
    "trial_length": 10,
    "click_num": 5,
    "RT": 1192,
    "action": 0,
    "reward": -2.3
  },
  {
    "phase": "TASK",
    "condition": "Cond4",
    "trial_num": 76,
    "trial_length": 10,
    "click_num": 6,
    "RT": 843,
    "action": 0,
    "reward": -2.3
  },
  {
    "phase": "TASK",
    "condition": "Cond4",
    "trial_num": 76,
    "trial_length": 10,
    "click_num": 7,
    "RT": 1013,
    "action": 0,
    "reward": -2.3
  },
  {
    "phase": "TASK",
    "condition": "Cond4",
    "trial_num": 76,
    "trial_length": 10,
    "click_num": 8,
    "RT": 927,
    "action": 0,
    "reward": -2.3
  },
  {
    "phase": "TASK",
    "condition": "Cond4",
    "trial_num": 76,
    "trial_length": 10,
    "click_num": 9,
    "RT": 960,
    "action": 0,
    "reward": -2.3
  },
  {
    "phase": "TASK",
    "condition": "Cond4",
    "trial_num": 76,
    "trial_length": 10,
    "click_num": 10,
    "RT": 1308,
    "action": 0,
    "reward": -2.3
  },
  {
    "phase": "TASK",
    "condition": "Cond4",
    "trial_num": 77,
    "trial_length": 10,
    "click_num": 1,
    "RT": 1247,
    "action": 1,
    "reward": -2.1
  },
  {
    "phase": "TASK",
    "condition": "Cond4",
    "trial_num": 77,
    "trial_length": 10,
    "click_num": 2,
    "RT": 3191,
    "action": 0,
    "reward": -2.1
  },
  {
    "phase": "TASK",
    "condition": "Cond4",
    "trial_num": 77,
    "trial_length": 10,
    "click_num": 3,
    "RT": 1010,
    "action": 0,
    "reward": -2.1
  },
  {
    "phase": "TASK",
    "condition": "Cond4",
    "trial_num": 77,
    "trial_length": 10,
    "click_num": 4,
    "RT": 838,
    "action": 0,
    "reward": -2.1
  },
  {
    "phase": "TASK",
    "condition": "Cond4",
    "trial_num": 77,
    "trial_length": 10,
    "click_num": 5,
    "RT": 1008,
    "action": 0,
    "reward": -2.1
  },
  {
    "phase": "TASK",
    "condition": "Cond4",
    "trial_num": 77,
    "trial_length": 10,
    "click_num": 6,
    "RT": 890,
    "action": 0,
    "reward": -2.1
  },
  {
    "phase": "TASK",
    "condition": "Cond4",
    "trial_num": 77,
    "trial_length": 10,
    "click_num": 7,
    "RT": 959,
    "action": 0,
    "reward": -2.1
  },
  {
    "phase": "TASK",
    "condition": "Cond4",
    "trial_num": 77,
    "trial_length": 10,
    "click_num": 8,
    "RT": 1072,
    "action": 0,
    "reward": -2.1
  },
  {
    "phase": "TASK",
    "condition": "Cond4",
    "trial_num": 77,
    "trial_length": 10,
    "click_num": 9,
    "RT": 975,
    "action": 0,
    "reward": -2.1
  },
  {
    "phase": "TASK",
    "condition": "Cond4",
    "trial_num": 77,
    "trial_length": 10,
    "click_num": 10,
    "RT": 999,
    "action": 1,
    "reward": -3.1
  },
  {
    "phase": "TASK",
    "condition": "Cond4",
    "trial_num": 78,
    "trial_length": 5,
    "click_num": 1,
    "RT": 1137,
    "action": 1,
    "reward": -3.2
  },
  {
    "phase": "TASK",
    "condition": "Cond4",
    "trial_num": 78,
    "trial_length": 5,
    "click_num": 2,
    "RT": 1256,
    "action": 1,
    "reward": -3.4
  },
  {
    "phase": "TASK",
    "condition": "Cond4",
    "trial_num": 78,
    "trial_length": 5,
    "click_num": 3,
    "RT": 1367,
    "action": 1,
    "reward": -2.8
  },
  {
    "phase": "TASK",
    "condition": "Cond4",
    "trial_num": 78,
    "trial_length": 5,
    "click_num": 4,
    "RT": 1480,
    "action": 0,
    "reward": -2.8
  },
  {
    "phase": "TASK",
    "condition": "Cond4",
    "trial_num": 78,
    "trial_length": 5,
    "click_num": 5,
    "RT": 778,
    "action": 0,
    "reward": -2.8
  },
  {
    "phase": "TASK",
    "condition": "Cond4",
    "trial_num": 79,
    "trial_length": 5,
    "click_num": 1,
    "RT": 938,
    "action": 1,
    "reward": -4.3
  },
  {
    "phase": "TASK",
    "condition": "Cond4",
    "trial_num": 79,
    "trial_length": 5,
    "click_num": 2,
    "RT": 1314,
    "action": 1,
    "reward": -2.5
  },
  {
    "phase": "TASK",
    "condition": "Cond4",
    "trial_num": 79,
    "trial_length": 5,
    "click_num": 3,
    "RT": 1784,
    "action": 0,
    "reward": -2.5
  },
  {
