[
  {
    "phase": "TASK",
    "condition": "Cond4",
    "trial_num": 1,
    "trial_length": 8,
    "click_num": 1,
    "RT": 3974,
    "action": 1,
    "reward": -3
  },
  {
    "phase": "TASK",
    "condition": "Cond4",
    "trial_num": 1,
    "trial_length": 8,
    "click_num": 2,
    "RT": 5072,
    "action": 1,
    "reward": -2.9
  },
  {
    "phase": "TASK",
    "condition": "Cond4",
    "trial_num": 1,
    "trial_length": 8,
    "click_num": 3,
    "RT": 6102,
    "action": 1,
    "reward": -3
  },
  {
    "phase": "TASK",
    "condition": "Cond4",
    "trial_num": 1,
    "trial_length": 8,
    "click_num": 4,
    "RT": 3402,
    "action": 1,
    "reward": -3.3
  },
  {
    "phase": "TASK",
    "condition": "Cond4",
    "trial_num": 1,
    "trial_length": 8,
    "click_num": 5,
    "RT": 3279,
    "action": 0,
    "reward": -2.9
  },
  {
    "phase": "TASK",
    "condition": "Cond4",
    "trial_num": 1,
    "trial_length": 8,
    "click_num": 6,
    "RT": 2274,
    "action": 1,
    "reward": -4.3
  },
  {
    "phase": "TASK",
    "condition": "Cond4",
    "trial_num": 1,
    "trial_length": 8,
    "click_num": 7,
    "RT": 2628,
    "action": 1,
    "reward": -3
  },
  {
    "phase": "TASK",
    "condition": "Cond4",
    "trial_num": 1,
    "trial_length": 8,
    "click_num": 8,
    "RT": 1922,
    "action": 0,
    "reward": -2.9
  },
  {
    "phase": "TASK",
    "condition": "Cond4",
    "trial_num": 2,
    "trial_length": 5,
    "click_num": 1,
    "RT": 1772,
    "action": 1,
    "reward": -4.1
  },
  {
    "phase": "TASK",
    "condition": "Cond4",
    "trial_num": 2,
    "trial_length": 5,
    "click_num": 2,
    "RT": 2089,
    "action": 1,
    "reward": -3.2
  },
  {
    "phase": "TASK",
    "condition": "Cond4",
    "trial_num": 2,
    "trial_length": 5,
    "click_num": 3,
    "RT": 1727,
    "action": 1,
    "reward": -1.3
  },
  {
    "phase": "TASK",
    "condition": "Cond4",
    "trial_num": 2,
    "trial_length": 5,
    "click_num": 4,
    "RT": 4680,
    "action": 0,
    "reward": -1.3
  },
  {
    "phase": "TASK",
    "condition": "Cond4",
    "trial_num": 2,
    "trial_length": 5,
    "click_num": 5,
    "RT": 1361,
    "action": 0,
    "reward": -1.3
  },
  {
    "phase": "TASK",
    "condition": "Cond4",
    "trial_num": 3,
    "trial_length": 5,
    "click_num": 1,
    "RT": 1574,
    "action": 1,
    "reward": -3.4
  },
  {
    "phase": "TASK",
    "condition": "Cond4",
    "trial_num": 3,
    "trial_length": 5,
    "click_num": 2,
    "RT": 1736,
    "action": 1,
    "reward": -3.1
  },
  {
    "phase": "TASK",
    "condition": "Cond4",
    "trial_num": 3,
    "trial_length": 5,
    "click_num": 3,
    "RT": 1584,
    "action": 1,
    "reward": -3.2
  },
  {
    "phase": "TASK",
    "condition": "Cond4",
    "trial_num": 3,
    "trial_length": 5,
    "click_num": 4,
    "RT": 1327,
    "action": 1,
    "reward": -4.1
  },
  {
    "phase": "TASK",
    "condition": "Cond4",
    "trial_num": 3,
    "trial_length": 5,
    "click_num": 5,
    "RT": 1268,
    "action": 1,
    "reward": -2.1
  },
  {
    "phase": "TASK",
    "condition": "Cond4",
    "trial_num": 4,
    "trial_length": 6,
    "click_num": 1,
    "RT": 1405,
    "action": 1,
    "reward": -3.3
  },
  {
    "phase": "TASK",
    "condition": "Cond4",
    "trial_num": 4,
    "trial_length": 6,
    "click_num": 2,
    "RT": 1786,
    "action": 1,
    "reward": -2
  },
  {
    "phase": "TASK",
    "condition": "Cond4",
    "trial_num": 4,
    "trial_length": 6,
    "click_num": 3,
    "RT": 2047,
    "action": 0,
    "reward": -2
  },
  {
    "phase": "TASK",
    "condition": "Cond4",
    "trial_num": 4,
    "trial_length": 6,
    "click_num": 4,
    "RT": 1840,
    "action": 1,
    "reward": -3.5
  },
  {
    "phase": "TASK",
    "condition": "Cond4",
    "trial_num": 4,
    "trial_length": 6,
    "click_num": 5,
    "RT": 1392,
    "action": 0,
    "reward": -2
  },
  {
    "phase": "TASK",
    "condition": "Cond4",
    "trial_num": 4,
    "trial_length": 6,
    "click_num": 6,
    "RT": 1816,
    "action": 0,
    "reward": -2
  },
  {
    "phase": "TASK",
    "condition": "Cond4",
    "trial_num": 5,
    "trial_length": 10,
    "click_num": 1,
    "RT": 1553,
    "action": 1,
    "reward": -4.3
  },
  {
    "phase": "TASK",
    "condition": "Cond4",
    "trial_num": 5,
    "trial_length": 10,
    "click_num": 2,
    "RT": 2270,
    "action": 1,
    "reward": -3.5
  },
  {
    "phase": "TASK",
    "condition": "Cond4",
    "trial_num": 5,
    "trial_length": 10,
    "click_num": 3,
    "RT": 1962,
    "action": 1,
    "reward": -2.6
  },
  {
    "phase": "TASK",
    "condition": "Cond4",
    "trial_num": 5,
    "trial_length": 10,
    "click_num": 4,
    "RT": 1398,
    "action": 1,
    "reward": -3.3
  },
  {
    "phase": "TASK",
    "condition": "Cond4",
    "trial_num": 5,
    "trial_length": 10,
    "click_num": 5,
    "RT": 1143,
    "action": 1,
    "reward": -3.1
  },
  {
    "phase": "TASK",
    "condition": "Cond4",
    "trial_num": 5,
    "trial_length": 10,
    "click_num": 6,
    "RT": 1866,
    "action": 1,
    "reward": -3.8
  },
  {
    "phase": "TASK",
    "condition": "Cond4",
    "trial_num": 5,
    "trial_length": 10,
    "click_num": 7,
    "RT": 1525,
    "action": 0,
    "reward": -2.6
  },
  {
    "phase": "TASK",
    "condition": "Cond4",
    "trial_num": 5,
    "trial_length": 10,
    "click_num": 8,
    "RT": 970,
    "action": 1,
    "reward": -3.8
  },
  {
    "phase": "TASK",
    "condition": "Cond4",
    "trial_num": 5,
    "trial_length": 10,
    "click_num": 9,
    "RT": 1086,
    "action": 0,
    "reward": -2.6
  },
  {
    "phase": "TASK",
    "condition": "Cond4",
    "trial_num": 5,
    "trial_length": 10,
    "click_num": 10,
    "RT": 896,
    "action": 0,
    "reward": -2.6
  },
  {
    "phase": "TASK",
    "condition": "Cond4",
    "trial_num": 6,
    "trial_length": 6,
    "click_num": 1,
    "RT": 1597,
    "action": 1,
    "reward": -2.3
  },
  {
    "phase": "TASK",
    "condition": "Cond4",
    "trial_num": 6,
    "trial_length": 6,
    "click_num": 2,
    "RT": 2287,
    "action": 0,
    "reward": -2.3
  },
  {
    "phase": "TASK",
    "condition": "Cond4",
    "trial_num": 6,
    "trial_length": 6,
    "click_num": 3,
    "RT": 1180,
    "action": 0,
    "reward": -2.3
  },
  {
    "phase": "TASK",
    "condition": "Cond4",
    "trial_num": 6,
    "trial_length": 6,
    "click_num": 4,
    "RT": 1102,
    "action": 0,
    "reward": -2.3
  },
  {
    "phase": "TASK",
    "condition": "Cond4",
    "trial_num": 6,
    "trial_length": 6,
    "click_num": 5,
    "RT": 1431,
    "action": 0,
    "reward": -2.3
  },
  {
    "phase": "TASK",
    "condition": "Cond4",
    "trial_num": 6,
    "trial_length": 6,
    "click_num": 6,
    "RT": 959,
    "action": 1,
    "reward": -2.5
  },
  {
    "phase": "TASK",
    "condition": "Cond4",
    "trial_num": 7,
    "trial_length": 9,
    "click_num": 1,
    "RT": 1792,
    "action": 1,
    "reward": -3.2
  },
  {
    "phase": "TASK",
    "condition": "Cond4",
    "trial_num": 7,
    "trial_length": 9,
    "click_num": 2,
    "RT": 1552,
    "action": 1,
    "reward": -3.1
  },
  {
    "phase": "TASK",
    "condition": "Cond4",
    "trial_num": 7,
    "trial_length": 9,
    "click_num": 3,
    "RT": 1985,
    "action": 0,
    "reward": -3.1
  },
  {
    "phase": "TASK",
    "condition": "Cond4",
    "trial_num": 7,
    "trial_length": 9,
    "click_num": 4,
    "RT": 1039,
    "action": 1,
    "reward": -2.5
  },
  {
    "phase": "TASK",
    "condition": "Cond4",
    "trial_num": 7,
    "trial_length": 9,
    "click_num": 5,
    "RT": 2352,
    "action": 1,
    "reward": -4
  },
  {
    "phase": "TASK",
    "condition": "Cond4",
    "trial_num": 7,
    "trial_length": 9,
    "click_num": 6,
    "RT": 1032,
    "action": 0,
    "reward": -2.5
  },
  {
    "phase": "TASK",
    "condition": "Cond4",
    "trial_num": 7,
    "trial_length": 9,
    "click_num": 7,
    "RT": 855,
    "action": 0,
    "reward": -2.5
  },
  {
    "phase": "TASK",
    "condition": "Cond4",
    "trial_num": 7,
    "trial_length": 9,
    "click_num": 8,
    "RT": 888,
    "action": 0,
    "reward": -2.5
  },
  {
    "phase": "TASK",
    "condition": "Cond4",
    "trial_num": 7,
    "trial_length": 9,
    "click_num": 9,
    "RT": 736,
    "action": 1,
    "reward": -2.7
  },
  {
    "phase": "TASK",
    "condition": "Cond4",
    "trial_num": 8,
    "trial_length": 9,
    "click_num": 1,
    "RT": 1038,
    "action": 1,
    "reward": -1.9
  },
  {
    "phase": "TASK",
    "condition": "Cond4",
    "trial_num": 8,
    "trial_length": 9,
    "click_num": 2,
    "RT": 2369,
    "action": 0,
    "reward": -1.9
  },
  {
    "phase": "TASK",
    "condition": "Cond4",
    "trial_num": 8,
    "trial_length": 9,
    "click_num": 3,
    "RT": 975,
    "action": 0,
    "reward": -1.9
  },
  {
    "phase": "TASK",
    "condition": "Cond4",
    "trial_num": 8,
    "trial_length": 9,
    "click_num": 4,
    "RT": 769,
    "action": 0,
    "reward": -1.9
  },
  {
    "phase": "TASK",
    "condition": "Cond4",
    "trial_num": 8,
    "trial_length": 9,
    "click_num": 5,
    "RT": 778,
    "action": 0,
    "reward": -1.9
  },
  {
    "phase": "TASK",
    "condition": "Cond4",
    "trial_num": 8,
    "trial_length": 9,
    "click_num": 6,
    "RT": 791,
    "action": 0,
    "reward": -1.9
  },
  {
    "phase": "TASK",
    "condition": "Cond4",
    "trial_num": 8,
    "trial_length": 9,
    "click_num": 7,
    "RT": 864,
    "action": 0,
    "reward": -1.9
  },
  {
    "phase": "TASK",
    "condition": "Cond4",
    "trial_num": 8,
    "trial_length": 9,
    "click_num": 8,
    "RT": 718,
    "action": 1,
    "reward": -2.2
  },
  {
    "phase": "TASK",
    "condition": "Cond4",
    "trial_num": 8,
    "trial_length": 9,
    "click_num": 9,
    "RT": 907,
    "action": 0,
    "reward": -1.9
  },
  {
    "phase": "TASK",
    "condition": "Cond4",
    "trial_num": 9,
    "trial_length": 5,
    "click_num": 1,
    "RT": 1101,
    "action": 1,
    "reward": -3
  },
  {
    "phase": "TASK",
    "condition": "Cond4",
    "trial_num": 9,
    "trial_length": 5,
    "click_num": 2,
    "RT": 2576,
    "action": 1,
    "reward": -2.3
  },
  {
    "phase": "TASK",
    "condition": "Cond4",
    "trial_num": 9,
    "trial_length": 5,
    "click_num": 3,
    "RT": 1912,
    "action": 0,
    "reward": -2.3
  },
  {
    "phase": "TASK",
    "condition": "Cond4",
    "trial_num": 9,
    "trial_length": 5,
    "click_num": 4,
    "RT": 803,
    "action": 0,
    "reward": -2.3
  },
  {
    "phase": "TASK",
    "condition": "Cond4",
    "trial_num": 9,
    "trial_length": 5,
    "click_num": 5,
    "RT": 1054,
    "action": 0,
    "reward": -2.3
  },
  {
    "phase": "TASK",
    "condition": "Cond4",
    "trial_num": 10,
    "trial_length": 6,
    "click_num": 1,
    "RT": 874,
    "action": 1,
    "reward": -3.4
  },
  {
    "phase": "TASK",
    "condition": "Cond4",
    "trial_num": 10,
    "trial_length": 6,
    "click_num": 2,
    "RT": 1656,
    "action": 1,
    "reward": -2.5
  },
  {
    "phase": "TASK",
    "condition": "Cond4",
    "trial_num": 10,
    "trial_length": 6,
    "click_num": 3,
    "RT": 1936,
    "action": 1,
    "reward": -2.3
  },
  {
    "phase": "TASK",
    "condition": "Cond4",
    "trial_num": 10,
    "trial_length": 6,
    "click_num": 4,
    "RT": 1399,
    "action": 0,
    "reward": -2.3
  },
  {
    "phase": "TASK",
    "condition": "Cond4",
    "trial_num": 10,
    "trial_length": 6,
    "click_num": 5,
    "RT": 841,
    "action": 0,
    "reward": -2.3
  },
  {
    "phase": "TASK",
    "condition": "Cond4",
    "trial_num": 10,
    "trial_length": 6,
    "click_num": 6,
    "RT": 982,
    "action": 0,
    "reward": -2.3
  },
  {
    "phase": "TASK",
    "condition": "Cond4",
    "trial_num": 11,
    "trial_length": 5,
    "click_num": 1,
    "RT": 1192,
    "action": 1,
    "reward": -3.2
  },
  {
    "phase": "TASK",
    "condition": "Cond4",
    "trial_num": 11,
    "trial_length": 5,
    "click_num": 2,
    "RT": 1855,
    "action": 1,
    "reward": -2
  },
  {
    "phase": "TASK",
    "condition": "Cond4",
    "trial_num": 11,
    "trial_length": 5,
    "click_num": 3,
    "RT": 1240,
    "action": 0,
    "reward": -2
  },
  {
    "phase": "TASK",
    "condition": "Cond4",
    "trial_num": 11,
    "trial_length": 5,
    "click_num": 4,
    "RT": 1090,
    "action": 0,
    "reward": -2
  },
  {
    "phase": "TASK",
    "condition": "Cond4",
    "trial_num": 11,
    "trial_length": 5,
    "click_num": 5,
    "RT": 753,
    "action": 0,
    "reward": -2
  },
  {
    "phase": "TASK",
    "condition": "Cond4",
    "trial_num": 12,
    "trial_length": 6,
    "click_num": 1,
    "RT": 974,
    "action": 1,
    "reward": -4.1
  },
  {
    "phase": "TASK",
    "condition": "Cond4",
    "trial_num": 12,
    "trial_length": 6,
    "click_num": 2,
    "RT": 1744,
    "action": 1,
    "reward": -2
  },
  {
    "phase": "TASK",
    "condition": "Cond4",
    "trial_num": 12,
    "trial_length": 6,
    "click_num": 3,
    "RT": 1423,
    "action": 0,
    "reward": -2
  },
  {
    "phase": "TASK",
    "condition": "Cond4",
    "trial_num": 12,
    "trial_length": 6,
    "click_num": 4,
    "RT": 1240,
    "action": 1,
    "reward": -3.4
  },
  {
    "phase": "TASK",
    "condition": "Cond4",
    "trial_num": 12,
    "trial_length": 6,
    "click_num": 5,
    "RT": 1040,
    "action": 0,
    "reward": -2
  },
  {
    "phase": "TASK",
    "condition": "Cond4",
    "trial_num": 12,
    "trial_length": 6,
    "click_num": 6,
    "RT": 736,
    "action": 0,
    "reward": -2
  },
  {
    "phase": "TASK",
    "condition": "Cond4",
    "trial_num": 13,
    "trial_length": 6,
    "click_num": 1,
    "RT": 1015,
    "action": 1,
    "reward": -3.2
  },
  {
    "phase": "TASK",
    "condition": "Cond4",
    "trial_num": 13,
    "trial_length": 6,
    "click_num": 2,
    "RT": 1615,
    "action": 1,
    "reward": -1.7
  },
  {
    "phase": "TASK",
    "condition": "Cond4",
    "trial_num": 13,
    "trial_length": 6,
    "click_num": 3,
    "RT": 1753,
    "action": 0,
    "reward": -1.7
  },
  {
    "phase": "TASK",
    "condition": "Cond4",
    "trial_num": 13,
    "trial_length": 6,
    "click_num": 4,
    "RT": 721,
    "action": 0,
    "reward": -1.7
  },
  {
    "phase": "TASK",
    "condition": "Cond4",
    "trial_num": 13,
    "trial_length": 6,
    "click_num": 5,
    "RT": 743,
    "action": 0,
    "reward": -1.7
  },
  {
    "phase": "TASK",
    "condition": "Cond4",
    "trial_num": 13,
    "trial_length": 6,
    "click_num": 6,
    "RT": 986,
    "action": 0,
    "reward": -1.7
  },
  {
    "phase": "TASK",
    "condition": "Cond4",
    "trial_num": 14,
    "trial_length": 9,
    "click_num": 1,
    "RT": 1278,
    "action": 1,
    "reward": -3
  },
  {
    "phase": "TASK",
    "condition": "Cond4",
    "trial_num": 14,
    "trial_length": 9,
    "click_num": 2,
    "RT": 1795,
    "action": 1,
    "reward": -2.8
  },
  {
    "phase": "TASK",
    "condition": "Cond4",
    "trial_num": 14,
    "trial_length": 9,
    "click_num": 3,
    "RT": 1717,
    "action": 1,
    "reward": -3.9
  },
  {
    "phase": "TASK",
    "condition": "Cond4",
    "trial_num": 14,
    "trial_length": 9,
    "click_num": 4,
    "RT": 1360,
    "action": 0,
    "reward": -2.8
  },
  {
    "phase": "TASK",
    "condition": "Cond4",
    "trial_num": 14,
    "trial_length": 9,
    "click_num": 5,
    "RT": 1106,
    "action": 1,
    "reward": -2.1
  },
  {
    "phase": "TASK",
    "condition": "Cond4",
    "trial_num": 14,
    "trial_length": 9,
    "click_num": 6,
    "RT": 1366,
    "action": 0,
    "reward": -2.1
  },
  {
    "phase": "TASK",
    "condition": "Cond4",
    "trial_num": 14,
    "trial_length": 9,
    "click_num": 7,
    "RT": 738,
    "action": 0,
    "reward": -2.1
  },
  {
    "phase": "TASK",
    "condition": "Cond4",
    "trial_num": 14,
    "trial_length": 9,
    "click_num": 8,
    "RT": 1037,
    "action": 1,
    "reward": -2.8
  },
  {
    "phase": "TASK",
    "condition": "Cond4",
    "trial_num": 14,
    "trial_length": 9,
    "click_num": 9,
    "RT": 1087,
    "action": 0,
    "reward": -2.1
  },
  {
    "phase": "TASK",
    "condition": "Cond4",
    "trial_num": 15,
    "trial_length": 7,
    "click_num": 1,
    "RT": 1030,
    "action": 1,
    "reward": -4.3
  },
  {
    "phase": "TASK",
    "condition": "Cond4",
    "trial_num": 15,
    "trial_length": 7,
    "click_num": 2,
    "RT": 1498,
    "action": 1,
    "reward": -2.3
  },
  {
    "phase": "TASK",
    "condition": "Cond4",
    "trial_num": 15,
    "trial_length": 7,
    "click_num": 3,
    "RT": 1441,
    "action": 1,
    "reward": -3.2
  },
  {
    "phase": "TASK",
    "condition": "Cond4",
    "trial_num": 15,
    "trial_length": 7,
    "click_num": 4,
    "RT": 1397,
    "action": 0,
    "reward": -2.3
  },
  {
    "phase": "TASK",
    "condition": "Cond4",
    "trial_num": 15,
    "trial_length": 7,
    "click_num": 5,
    "RT": 896,
    "action": 1,
    "reward": -2.5
  },
  {
    "phase": "TASK",
    "condition": "Cond4",
    "trial_num": 15,
    "trial_length": 7,
    "click_num": 6,
    "RT": 1071,
    "action": 0,
    "reward": -2.3
  },
  {
    "phase": "TASK",
    "condition": "Cond4",
    "trial_num": 15,
    "trial_length": 7,
    "click_num": 7,
    "RT": 1019,
    "action": 0,
    "reward": -2.3
  },
  {
    "phase": "TASK",
    "condition": "Cond4",
    "trial_num": 16,
    "trial_length": 9,
    "click_num": 1,
    "RT": 1449,
    "action": 1,
    "reward": -2.8
  },
  {
    "phase": "TASK",
    "condition": "Cond4",
    "trial_num": 16,
    "trial_length": 9,
    "click_num": 2,
    "RT": 2650,
    "action": 1,
    "reward": -3.9
  },
  {
    "phase": "TASK",
    "condition": "Cond4",
    "trial_num": 16,
    "trial_length": 9,
    "click_num": 3,
    "RT": 1239,
    "action": 0,
    "reward": -2.8
  },
  {
    "phase": "TASK",
    "condition": "Cond4",
    "trial_num": 16,
    "trial_length": 9,
    "click_num": 4,
    "RT": 2055,
    "action": 0,
    "reward": -2.8
  },
  {
    "phase": "TASK",
    "condition": "Cond4",
    "trial_num": 16,
    "trial_length": 9,
    "click_num": 5,
    "RT": 930,
    "action": 1,
    "reward": -2.2
  },
  {
    "phase": "TASK",
    "condition": "Cond4",
    "trial_num": 16,
    "trial_length": 9,
    "click_num": 6,
    "RT": 1286,
    "action": 0,
    "reward": -2.2
  },
  {
    "phase": "TASK",
    "condition": "Cond4",
    "trial_num": 16,
    "trial_length": 9,
    "click_num": 7,
    "RT": 904,
    "action": 0,
    "reward": -2.2
  },
  {
    "phase": "TASK",
    "condition": "Cond4",
    "trial_num": 16,
    "trial_length": 9,
    "click_num": 8,
    "RT": 1007,
    "action": 0,
    "reward": -2.2
  },
  {
    "phase": "TASK",
    "condition": "Cond4",
    "trial_num": 16,
    "trial_length": 9,
    "click_num": 9,
    "RT": 1747,
    "action": 0,
    "reward": -2.2
  },
  {
    "phase": "TASK",
    "condition": "Cond4",
    "trial_num": 17,
    "trial_length": 9,
    "click_num": 1,
    "RT": 1034,
    "action": 1,
    "reward": -2
  },
  {
    "phase": "TASK",
    "condition": "Cond4",
    "trial_num": 17,
    "trial_length": 9,
    "click_num": 2,
    "RT": 1818,
    "action": 0,
    "reward": -2
  },
  {
    "phase": "TASK",
    "condition": "Cond4",
    "trial_num": 17,
    "trial_length": 9,
    "click_num": 3,
    "RT": 685,
    "action": 0,
    "reward": -2
  },
  {
    "phase": "TASK",
    "condition": "Cond4",
    "trial_num": 17,
    "trial_length": 9,
    "click_num": 4,
    "RT": 706,
    "action": 0,
    "reward": -2
  },
  {
    "phase": "TASK",
    "condition": "Cond4",
    "trial_num": 17,
    "trial_length": 9,
    "click_num": 5,
    "RT": 959,
    "action": 0,
    "reward": -2
  },
  {
    "phase": "TASK",
    "condition": "Cond4",
    "trial_num": 17,
    "trial_length": 9,
    "click_num": 6,
    "RT": 753,
    "action": 0,
    "reward": -2
  },
  {
    "phase": "TASK",
    "condition": "Cond4",
    "trial_num": 17,
    "trial_length": 9,
    "click_num": 7,
    "RT": 774,
    "action": 0,
    "reward": -2
  },
  {
    "phase": "TASK",
    "condition": "Cond4",
    "trial_num": 17,
    "trial_length": 9,
    "click_num": 8,
    "RT": 720,
    "action": 1,
    "reward": -2.6
  },
  {
    "phase": "TASK",
    "condition": "Cond4",
    "trial_num": 17,
    "trial_length": 9,
    "click_num": 9,
    "RT": 1273,
    "action": 0,
    "reward": -2
  },
  {
    "phase": "TASK",
    "condition": "Cond4",
    "trial_num": 18,
    "trial_length": 8,
    "click_num": 1,
    "RT": 1326,
    "action": 1,
    "reward": -3.1
  },
  {
    "phase": "TASK",
    "condition": "Cond4",
    "trial_num": 18,
    "trial_length": 8,
    "click_num": 2,
    "RT": 1871,
    "action": 1,
    "reward": -2.8
  },
  {
    "phase": "TASK",
    "condition": "Cond4",
    "trial_num": 18,
    "trial_length": 8,
    "click_num": 3,
    "RT": 1417,
    "action": 1,
    "reward": -2.6
  },
  {
    "phase": "TASK",
    "condition": "Cond4",
    "trial_num": 18,
    "trial_length": 8,
    "click_num": 4,
    "RT": 1321,
    "action": 1,
    "reward": -2.3
  },
  {
    "phase": "TASK",
    "condition": "Cond4",
    "trial_num": 18,
    "trial_length": 8,
    "click_num": 5,
    "RT": 1792,
    "action": 1,
    "reward": -2.5
  },
  {
    "phase": "TASK",
    "condition": "Cond4",
    "trial_num": 18,
    "trial_length": 8,
    "click_num": 6,
    "RT": 1202,
    "action": 0,
    "reward": -2.3
  },
  {
    "phase": "TASK",
    "condition": "Cond4",
    "trial_num": 18,
    "trial_length": 8,
    "click_num": 7,
    "RT": 684,
    "action": 0,
    "reward": -2.3
  },
  {
    "phase": "TASK",
    "condition": "Cond4",
    "trial_num": 18,
    "trial_length": 8,
    "click_num": 8,
    "RT": 730,
    "action": 0,
    "reward": -2.3
  },
  {
    "phase": "TASK",
    "condition": "Cond4",
    "trial_num": 19,
    "trial_length": 9,
    "click_num": 1,
    "RT": 1005,
    "action": 1,
    "reward": -3
  },
  {
    "phase": "TASK",
    "condition": "Cond4",
    "trial_num": 19,
    "trial_length": 9,
    "click_num": 2,
    "RT": 1643,
    "action": 1,
    "reward": -2.7
  },
  {
    "phase": "TASK",
    "condition": "Cond4",
    "trial_num": 19,
    "trial_length": 9,
    "click_num": 3,
    "RT": 1518,
    "action": 1,
    "reward": -3.3
  },
  {
    "phase": "TASK",
    "condition": "Cond4",
    "trial_num": 19,
    "trial_length": 9,
    "click_num": 4,
    "RT": 1399,
    "action": 0,
    "reward": -2.7
  },
  {
    "phase": "TASK",
    "condition": "Cond4",
    "trial_num": 19,
    "trial_length": 9,
    "click_num": 5,
    "RT": 1146,
    "action": 1,
    "reward": -3.7
  },
  {
    "phase": "TASK",
    "condition": "Cond4",
    "trial_num": 19,
    "trial_length": 9,
    "click_num": 6,
    "RT": 1271,
    "action": 0,
    "reward": -2.7
  },
  {
    "phase": "TASK",
    "condition": "Cond4",
    "trial_num": 19,
    "trial_length": 9,
    "click_num": 7,
    "RT": 792,
    "action": 0,
    "reward": -2.7
  },
  {
    "phase": "TASK",
    "condition": "Cond4",
    "trial_num": 19,
    "trial_length": 9,
    "click_num": 8,
    "RT": 1058,
    "action": 1,
    "reward": -3.3
  },
  {
    "phase": "TASK",
    "condition": "Cond4",
    "trial_num": 19,
    "trial_length": 9,
    "click_num": 9,
    "RT": 964,
    "action": 0,
    "reward": -2.7
  },
  {
    "phase": "TASK",
    "condition": "Cond4",
    "trial_num": 20,
    "trial_length": 8,
    "click_num": 1,
    "RT": 1516,
    "action": 1,
    "reward": -2.7
  },
  {
    "phase": "TASK",
    "condition": "Cond4",
    "trial_num": 20,
    "trial_length": 8,
    "click_num": 2,
    "RT": 2092,
    "action": 1,
    "reward": -3
  },
  {
    "phase": "TASK",
    "condition": "Cond4",
    "trial_num": 20,
    "trial_length": 8,
    "click_num": 3,
    "RT": 1267,
    "action": 0,
    "reward": -2.7
  },
  {
    "phase": "TASK",
    "condition": "Cond4",
    "trial_num": 20,
    "trial_length": 8,
    "click_num": 4,
    "RT": 936,
    "action": 1,
    "reward": -3.4
  },
  {
    "phase": "TASK",
    "condition": "Cond4",
    "trial_num": 20,
    "trial_length": 8,
    "click_num": 5,
    "RT": 1590,
    "action": 1,
    "reward": -3
  },
  {
    "phase": "TASK",
    "condition": "Cond4",
    "trial_num": 20,
    "trial_length": 8,
    "click_num": 6,
    "RT": 1970,
    "action": 1,
    "reward": -3.9
  },
  {
    "phase": "TASK",
    "condition": "Cond4",
    "trial_num": 20,
    "trial_length": 8,
    "click_num": 7,
    "RT": 973,
    "action": 0,
    "reward": -2.7
  },
  {
    "phase": "TASK",
    "condition": "Cond4",
    "trial_num": 20,
    "trial_length": 8,
    "click_num": 8,
    "RT": 1848,
    "action": 0,
    "reward": -2.7
  },
  {
    "phase": "TASK",
    "condition": "Cond4",
    "trial_num": 21,
    "trial_length": 6,
    "click_num": 1,
    "RT": 1589,
    "action": 1,
    "reward": -3
  },
  {
    "phase": "TASK",
    "condition": "Cond4",
    "trial_num": 21,
    "trial_length": 6,
    "click_num": 2,
    "RT": 2995,
    "action": 1,
    "reward": -2.7
  },
  {
    "phase": "TASK",
    "condition": "Cond4",
    "trial_num": 21,
    "trial_length": 6,
    "click_num": 3,
    "RT": 1301,
    "action": 1,
    "reward": -4.1
  },
  {
    "phase": "TASK",
    "condition": "Cond4",
    "trial_num": 21,
    "trial_length": 6,
    "click_num": 4,
    "RT": 2107,
    "action": 1,
    "reward": -3.2
  },
  {
    "phase": "TASK",
    "condition": "Cond4",
    "trial_num": 21,
    "trial_length": 6,
    "click_num": 5,
    "RT": 1878,
    "action": 0,
    "reward": -2.7
  },
  {
    "phase": "TASK",
    "condition": "Cond4",
    "trial_num": 21,
    "trial_length": 6,
    "click_num": 6,
    "RT": 783,
    "action": 0,
    "reward": -2.7
  },
  {
    "phase": "TASK",
    "condition": "Cond4",
    "trial_num": 22,
    "trial_length": 10,
    "click_num": 1,
    "RT": 1465,
    "action": 1,
    "reward": -3.4
  },
  {
    "phase": "TASK",
    "condition": "Cond4",
    "trial_num": 22,
    "trial_length": 10,
    "click_num": 2,
    "RT": 1552,
    "action": 1,
    "reward": -2.8
  },
  {
    "phase": "TASK",
    "condition": "Cond4",
    "trial_num": 22,
    "trial_length": 10,
    "click_num": 3,
    "RT": 1174,
    "action": 1,
    "reward": -3.8
  },
  {
    "phase": "TASK",
    "condition": "Cond4",
    "trial_num": 22,
    "trial_length": 10,
    "click_num": 4,
    "RT": 1850,
    "action": 1,
    "reward": -3.6
  },
  {
    "phase": "TASK",
    "condition": "Cond4",
    "trial_num": 22,
    "trial_length": 10,
    "click_num": 5,
    "RT": 1665,
    "action": 0,
    "reward": -2.8
  },
  {
    "phase": "TASK",
    "condition": "Cond4",
    "trial_num": 22,
    "trial_length": 10,
    "click_num": 6,
    "RT": 1021,
    "action": 1,
    "reward": -3.4
  },
  {
    "phase": "TASK",
    "condition": "Cond4",
    "trial_num": 22,
    "trial_length": 10,
    "click_num": 7,
    "RT": 1145,
    "action": 0,
    "reward": -2.8
  },
  {
    "phase": "TASK",
    "condition": "Cond4",
    "trial_num": 22,
    "trial_length": 10,
    "click_num": 8,
    "RT": 927,
    "action": 1,
    "reward": -3.9
  },
  {
    "phase": "TASK",
    "condition": "Cond4",
    "trial_num": 22,
    "trial_length": 10,
    "click_num": 9,
    "RT": 1319,
    "action": 0,
    "reward": -2.8
  },
  {
    "phase": "TASK",
    "condition": "Cond4",
    "trial_num": 22,
    "trial_length": 10,
    "click_num": 10,
    "RT": 1000,
    "action": 1,
    "reward": -4
  },
  {
    "phase": "TASK",
    "condition": "Cond4",
    "trial_num": 23,
    "trial_length": 7,
    "click_num": 1,
    "RT": 1502,
    "action": 1,
    "reward": -3.1
  },
  {
    "phase": "TASK",
    "condition": "Cond4",
    "trial_num": 23,
    "trial_length": 7,
    "click_num": 2,
    "RT": 1392,
    "action": 1,
    "reward": -2.6
  },
  {
    "phase": "TASK",
    "condition": "Cond4",
    "trial_num": 23,
    "trial_length": 7,
    "click_num": 3,
    "RT": 1458,
    "action": 1,
    "reward": -2.2
  },
  {
    "phase": "TASK",
    "condition": "Cond4",
    "trial_num": 23,
    "trial_length": 7,
    "click_num": 4,
    "RT": 1431,
    "action": 0,
    "reward": -2.2
  },
  {
    "phase": "TASK",
    "condition": "Cond4",
    "trial_num": 23,
    "trial_length": 7,
    "click_num": 5,
    "RT": 711,
    "action": 0,
    "reward": -2.2
  },
  {
    "phase": "TASK",
    "condition": "Cond4",
    "trial_num": 23,
    "trial_length": 7,
    "click_num": 6,
    "RT": 737,
    "action": 0,
    "reward": -2.2
  },
  {
    "phase": "TASK",
    "condition": "Cond4",
    "trial_num": 23,
    "trial_length": 7,
    "click_num": 7,
    "RT": 710,
    "action": 0,
    "reward": -2.2
  },
  {
    "phase": "TASK",
    "condition": "Cond4",
    "trial_num": 24,
    "trial_length": 10,
    "click_num": 1,
    "RT": 1070,
    "action": 1,
    "reward": -3.4
  },
  {
    "phase": "TASK",
    "condition": "Cond4",
    "trial_num": 24,
    "trial_length": 10,
    "click_num": 2,
    "RT": 999,
    "action": 1,
    "reward": -2.5
  },
  {
    "phase": "TASK",
    "condition": "Cond4",
    "trial_num": 24,
    "trial_length": 10,
    "click_num": 3,
    "RT": 1296,
    "action": 1,
    "reward": -4
  },
  {
    "phase": "TASK",
    "condition": "Cond4",
    "trial_num": 24,
    "trial_length": 10,
    "click_num": 4,
    "RT": 1167,
    "action": 1,
    "reward": -3
  },
  {
    "phase": "TASK",
    "condition": "Cond4",
    "trial_num": 24,
    "trial_length": 10,
    "click_num": 5,
    "RT": 1354,
    "action": 1,
    "reward": -3.5
  },
  {
    "phase": "TASK",
    "condition": "Cond4",
    "trial_num": 24,
    "trial_length": 10,
    "click_num": 6,
    "RT": 1264,
    "action": 0,
    "reward": -2.5
  },
  {
    "phase": "TASK",
    "condition": "Cond4",
    "trial_num": 24,
    "trial_length": 10,
    "click_num": 7,
    "RT": 894,
    "action": 0,
    "reward": -2.5
  },
  {
    "phase": "TASK",
    "condition": "Cond4",
    "trial_num": 24,
    "trial_length": 10,
    "click_num": 8,
    "RT": 688,
    "action": 0,
    "reward": -2.5
  },
  {
    "phase": "TASK",
    "condition": "Cond4",
    "trial_num": 24,
    "trial_length": 10,
    "click_num": 9,
    "RT": 769,
    "action": 0,
    "reward": -2.5
  },
  {
    "phase": "TASK",
    "condition": "Cond4",
    "trial_num": 24,
    "trial_length": 10,
    "click_num": 10,
    "RT": 811,
    "action": 0,
    "reward": -2.5
  },
  {
    "phase": "TASK",
    "condition": "Cond4",
    "trial_num": 25,
    "trial_length": 9,
    "click_num": 1,
    "RT": 991,
    "action": 1,
    "reward": -2.8
  },
  {
    "phase": "TASK",
    "condition": "Cond4",
    "trial_num": 25,
    "trial_length": 9,
    "click_num": 2,
    "RT": 1759,
    "action": 1,
    "reward": -3
  },
  {
    "phase": "TASK",
    "condition": "Cond4",
    "trial_num": 25,
    "trial_length": 9,
    "click_num": 3,
    "RT": 2042,
    "action": 1,
    "reward": -2.5
  },
  {
    "phase": "TASK",
    "condition": "Cond4",
    "trial_num": 25,
    "trial_length": 9,
    "click_num": 4,
    "RT": 2608,
    "action": 0,
    "reward": -2.5
  },
  {
    "phase": "TASK",
    "condition": "Cond4",
    "trial_num": 25,
    "trial_length": 9,
    "click_num": 5,
    "RT": 959,
    "action": 0,
    "reward": -2.5
  },
  {
    "phase": "TASK",
    "condition": "Cond4",
    "trial_num": 25,
    "trial_length": 9,
    "click_num": 6,
    "RT": 896,
    "action": 0,
    "reward": -2.5
  },
  {
    "phase": "TASK",
    "condition": "Cond4",
    "trial_num": 25,
    "trial_length": 9,
    "click_num": 7,
    "RT": 1362,
    "action": 1,
    "reward": -3
  },
  {
    "phase": "TASK",
    "condition": "Cond4",
    "trial_num": 25,
    "trial_length": 9,
    "click_num": 8,
    "RT": 917,
    "action": 0,
    "reward": -2.5
  },
  {
    "phase": "TASK",
    "condition": "Cond4",
    "trial_num": 25,
    "trial_length": 9,
    "click_num": 9,
    "RT": 1224,
    "action": 0,
    "reward": -2.5
  },
  {
    "phase": "TASK",
    "condition": "Cond4",
    "trial_num": 26,
    "trial_length": 5,
    "click_num": 1,
    "RT": 855,
    "action": 1,
    "reward": -2.8
  },
  {
    "phase": "TASK",
    "condition": "Cond4",
    "trial_num": 26,
    "trial_length": 5,
    "click_num": 2,
    "RT": 1545,
    "action": 1,
    "reward": -3.2
  },
  {
    "phase": "TASK",
    "condition": "Cond4",
    "trial_num": 26,
    "trial_length": 5,
    "click_num": 3,
    "RT": 1103,
    "action": 1,
    "reward": -2.5
  },
  {
    "phase": "TASK",
    "condition": "Cond4",
    "trial_num": 26,
    "trial_length": 5,
    "click_num": 4,
    "RT": 1235,
    "action": 0,
    "reward": -2.5
  },
  {
    "phase": "TASK",
    "condition": "Cond4",
    "trial_num": 26,
    "trial_length": 5,
    "click_num": 5,
    "RT": 709,
    "action": 0,
    "reward": -2.5
  },
  {
    "phase": "TASK",
    "condition": "Cond4",
    "trial_num": 27,
    "trial_length": 5,
    "click_num": 1,
    "RT": 1415,
    "action": 1,
    "reward": -3
  },
  {
    "phase": "TASK",
    "condition": "Cond4",
    "trial_num": 27,
    "trial_length": 5,
    "click_num": 2,
    "RT": 1703,
    "action": 1,
    "reward": -2.9
  },
  {
    "phase": "TASK",
    "condition": "Cond4",
    "trial_num": 27,
    "trial_length": 5,
    "click_num": 3,
    "RT": 1163,
    "action": 1,
    "reward": -1.8
  },
  {
    "phase": "TASK",
    "condition": "Cond4",
    "trial_num": 27,
    "trial_length": 5,
    "click_num": 4,
    "RT": 1182,
    "action": 0,
    "reward": -1.8
  },
  {
    "phase": "TASK",
    "condition": "Cond4",
    "trial_num": 27,
    "trial_length": 5,
    "click_num": 5,
    "RT": 679,
    "action": 0,
    "reward": -1.8
  },
  {
    "phase": "TASK",
    "condition": "Cond4",
    "trial_num": 28,
    "trial_length": 8,
    "click_num": 1,
    "RT": 1180,
    "action": 1,
    "reward": -3.9
  },
  {
    "phase": "TASK",
    "condition": "Cond4",
    "trial_num": 28,
    "trial_length": 8,
    "click_num": 2,
    "RT": 1618,
    "action": 1,
    "reward": -2.8
  },
  {
    "phase": "TASK",
    "condition": "Cond4",
    "trial_num": 28,
    "trial_length": 8,
    "click_num": 3,
    "RT": 1535,
    "action": 1,
    "reward": -1.7
  },
  {
    "phase": "TASK",
    "condition": "Cond4",
    "trial_num": 28,
    "trial_length": 8,
    "click_num": 4,
    "RT": 1544,
    "action": 0,
    "reward": -1.7
  },
  {
    "phase": "TASK",
    "condition": "Cond4",
    "trial_num": 28,
    "trial_length": 8,
    "click_num": 5,
    "RT": 1335,
    "action": 0,
    "reward": -1.7
  },
  {
    "phase": "TASK",
    "condition": "Cond4",
    "trial_num": 28,
    "trial_length": 8,
    "click_num": 6,
    "RT": 744,
    "action": 0,
    "reward": -1.7
  },
  {
    "phase": "TASK",
    "condition": "Cond4",
    "trial_num": 28,
    "trial_length": 8,
    "click_num": 7,
    "RT": 695,
    "action": 0,
    "reward": -1.7
  },
  {
    "phase": "TASK",
    "condition": "Cond4",
    "trial_num": 28,
    "trial_length": 8,
    "click_num": 8,
    "RT": 738,
    "action": 0,
    "reward": -1.7
  },
  {
    "phase": "TASK",
    "condition": "Cond4",
    "trial_num": 29,
    "trial_length": 10,
    "click_num": 1,
    "RT": 942,
    "action": 1,
    "reward": -2.4
  },
  {
    "phase": "TASK",
    "condition": "Cond4",
    "trial_num": 29,
    "trial_length": 10,
    "click_num": 2,
    "RT": 2864,
    "action": 0,
    "reward": -2.4
  },
  {
    "phase": "TASK",
    "condition": "Cond4",
    "trial_num": 29,
    "trial_length": 10,
    "click_num": 3,
    "RT": 655,
    "action": 0,
    "reward": -2.4
  },
  {
    "phase": "TASK",
    "condition": "Cond4",
    "trial_num": 29,
    "trial_length": 10,
    "click_num": 4,
    "RT": 692,
    "action": 0,
    "reward": -2.4
  },
  {
    "phase": "TASK",
    "condition": "Cond4",
    "trial_num": 29,
    "trial_length": 10,
    "click_num": 5,
    "RT": 686,
    "action": 1,
    "reward": -3.1
  },
  {
    "phase": "TASK",
    "condition": "Cond4",
    "trial_num": 29,
    "trial_length": 10,
    "click_num": 6,
    "RT": 1471,
    "action": 0,
    "reward": -2.4
  },
  {
    "phase": "TASK",
    "condition": "Cond4",
    "trial_num": 29,
    "trial_length": 10,
    "click_num": 7,
    "RT": 955,
    "action": 1,
    "reward": -2.8
  },
  {
    "phase": "TASK",
    "condition": "Cond4",
    "trial_num": 29,
    "trial_length": 10,
    "click_num": 8,
    "RT": 1372,
    "action": 1,
    "reward": -1.7
  },
  {
    "phase": "TASK",
    "condition": "Cond4",
    "trial_num": 29,
    "trial_length": 10,
    "click_num": 9,
    "RT": 1016,
    "action": 0,
    "reward": -1.7
  },
  {
    "phase": "TASK",
    "condition": "Cond4",
    "trial_num": 29,
    "trial_length": 10,
    "click_num": 10,
    "RT": 1001,
    "action": 0,
    "reward": -1.7
  },
  {
    "phase": "TASK",
    "condition": "Cond4",
    "trial_num": 30,
    "trial_length": 6,
    "click_num": 1,
    "RT": 1335,
    "action": 1,
    "reward": -2.6
  },
  {
    "phase": "TASK",
    "condition": "Cond4",
    "trial_num": 30,
    "trial_length": 6,
    "click_num": 2,
    "RT": 2015,
    "action": 0,
    "reward": -2.6
  },
  {
    "phase": "TASK",
    "condition": "Cond4",
    "trial_num": 30,
    "trial_length": 6,
    "click_num": 3,
    "RT": 696,
    "action": 1,
    "reward": -3.3
  },
  {
    "phase": "TASK",
    "condition": "Cond4",
    "trial_num": 30,
    "trial_length": 6,
    "click_num": 4,
    "RT": 1520,
    "action": 0,
    "reward": -2.6
  },
  {
    "phase": "TASK",
    "condition": "Cond4",
    "trial_num": 30,
    "trial_length": 6,
    "click_num": 5,
    "RT": 1936,
    "action": 0,
    "reward": -2.6
  },
  {
    "phase": "TASK",
    "condition": "Cond4",
    "trial_num": 30,
    "trial_length": 6,
    "click_num": 6,
    "RT": 1209,
    "action": 0,
    "reward": -2.6
  },
  {
    "phase": "TASK",
    "condition": "Cond4",
    "trial_num": 31,
    "trial_length": 6,
    "click_num": 1,
    "RT": 1273,
    "action": 1,
    "reward": -3.2
  },
  {
    "phase": "TASK",
    "condition": "Cond4",
    "trial_num": 31,
    "trial_length": 6,
    "click_num": 2,
    "RT": 1789,
    "action": 1,
    "reward": -1.6
  },
  {
    "phase": "TASK",
    "condition": "Cond4",
    "trial_num": 31,
    "trial_length": 6,
    "click_num": 3,
    "RT": 1136,
    "action": 0,
    "reward": -1.6
  },
  {
    "phase": "TASK",
    "condition": "Cond4",
    "trial_num": 31,
    "trial_length": 6,
    "click_num": 4,
    "RT": 664,
    "action": 0,
    "reward": -1.6
  },
  {
    "phase": "TASK",
    "condition": "Cond4",
    "trial_num": 31,
    "trial_length": 6,
    "click_num": 5,
    "RT": 683,
    "action": 0,
    "reward": -1.6
  },
  {
    "phase": "TASK",
    "condition": "Cond4",
    "trial_num": 31,
    "trial_length": 6,
    "click_num": 6,
    "RT": 1844,
    "action": 0,
    "reward": -1.6
  },
  {
    "phase": "TASK",
    "condition": "Cond4",
    "trial_num": 32,
    "trial_length": 10,
    "click_num": 1,
    "RT": 1359,
    "action": 1,
    "reward": -3.5
  },
  {
    "phase": "TASK",
    "condition": "Cond4",
    "trial_num": 32,
    "trial_length": 10,
    "click_num": 2,
    "RT": 1847,
    "action": 1,
    "reward": -2.8
  },
  {
    "phase": "TASK",
    "condition": "Cond4",
    "trial_num": 32,
    "trial_length": 10,
    "click_num": 3,
    "RT": 1355,
    "action": 1,
    "reward": -3
  },
  {
    "phase": "TASK",
    "condition": "Cond4",
    "trial_num": 32,
    "trial_length": 10,
    "click_num": 4,
    "RT": 1261,
    "action": 1,
    "reward": -3.8
  },
  {
    "phase": "TASK",
    "condition": "Cond4",
    "trial_num": 32,
    "trial_length": 10,
    "click_num": 5,
    "RT": 1347,
    "action": 1,
    "reward": -2.8
  },
  {
    "phase": "TASK",
    "condition": "Cond4",
    "trial_num": 32,
    "trial_length": 10,
    "click_num": 6,
    "RT": 1188,
    "action": 0,
    "reward": -2.8
  },
  {
    "phase": "TASK",
    "condition": "Cond4",
    "trial_num": 32,
    "trial_length": 10,
    "click_num": 7,
    "RT": 761,
    "action": 0,
    "reward": -2.8
  },
  {
    "phase": "TASK",
    "condition": "Cond4",
    "trial_num": 32,
    "trial_length": 10,
    "click_num": 8,
    "RT": 664,
    "action": 0,
    "reward": -2.8
  },
  {
    "phase": "TASK",
    "condition": "Cond4",
    "trial_num": 32,
    "trial_length": 10,
    "click_num": 9,
    "RT": 1543,
    "action": 0,
    "reward": -2.8
  },
  {
    "phase": "TASK",
    "condition": "Cond4",
    "trial_num": 32,
    "trial_length": 10,
    "click_num": 10,
    "RT": 856,
    "action": 1,
    "reward": -2.2
  },
  {
    "phase": "TASK",
    "condition": "Cond4",
    "trial_num": 33,
    "trial_length": 10,
    "click_num": 1,
    "RT": 1190,
    "action": 1,
    "reward": -4.1
  },
  {
    "phase": "TASK",
    "condition": "Cond4",
    "trial_num": 33,
    "trial_length": 10,
    "click_num": 2,
    "RT": 1027,
    "action": 1,
    "reward": -2.6
  },
  {
    "phase": "TASK",
    "condition": "Cond4",
    "trial_num": 33,
    "trial_length": 10,
    "click_num": 3,
    "RT": 1206,
    "action": 1,
    "reward": -2.8
  },
  {
    "phase": "TASK",
    "condition": "Cond4",
    "trial_num": 33,
    "trial_length": 10,
    "click_num": 4,
    "RT": 1170,
    "action": 1,
    "reward": -2.9
  },
  {
    "phase": "TASK",
    "condition": "Cond4",
    "trial_num": 33,
    "trial_length": 10,
    "click_num": 5,
    "RT": 957,
    "action": 1,
    "reward": -3.4
  },
  {
    "phase": "TASK",
    "condition": "Cond4",
    "trial_num": 33,
    "trial_length": 10,
    "click_num": 6,
    "RT": 1304,
    "action": 1,
    "reward": -3.4
  },
  {
    "phase": "TASK",
    "condition": "Cond4",
    "trial_num": 33,
    "trial_length": 10,
    "click_num": 7,
    "RT": 2977,
    "action": 1,
    "reward": -2.4
  },
  {
    "phase": "TASK",
    "condition": "Cond4",
    "trial_num": 33,
    "trial_length": 10,
    "click_num": 8,
    "RT": 1479,
    "action": 0,
    "reward": -2.4
  },
  {
    "phase": "TASK",
    "condition": "Cond4",
    "trial_num": 33,
    "trial_length": 10,
    "click_num": 9,
    "RT": 738,
    "action": 0,
    "reward": -2.4
  },
  {
    "phase": "TASK",
    "condition": "Cond4",
    "trial_num": 33,
    "trial_length": 10,
    "click_num": 10,
    "RT": 662,
    "action": 0,
    "reward": -2.4
  },
  {
    "phase": "TASK",
    "condition": "Cond4",
    "trial_num": 34,
    "trial_length": 5,
    "click_num": 1,
    "RT": 2406,
    "action": 1,
    "reward": -2.5
  },
  {
    "phase": "TASK",
    "condition": "Cond4",
    "trial_num": 34,
    "trial_length": 5,
    "click_num": 2,
    "RT": 2571,
    "action": 0,
    "reward": -2.5
  },
  {
    "phase": "TASK",
    "condition": "Cond4",
    "trial_num": 34,
    "trial_length": 5,
    "click_num": 3,
    "RT": 1310,
    "action": 0,
    "reward": -2.5
  },
  {
    "phase": "TASK",
    "condition": "Cond4",
    "trial_num": 34,
    "trial_length": 5,
    "click_num": 4,
    "RT": 834,
    "action": 1,
    "reward": -3.6
  },
  {
    "phase": "TASK",
    "condition": "Cond4",
    "trial_num": 34,
    "trial_length": 5,
    "click_num": 5,
    "RT": 1085,
    "action": 0,
    "reward": -2.5
  },
  {
    "phase": "TASK",
    "condition": "Cond4",
    "trial_num": 35,
    "trial_length": 5,
    "click_num": 1,
    "RT": 1197,
    "action": 1,
    "reward": -3.7
  },
  {
    "phase": "TASK",
    "condition": "Cond4",
    "trial_num": 35,
    "trial_length": 5,
    "click_num": 2,
    "RT": 2217,
    "action": 1,
    "reward": -2.9
  },
  {
    "phase": "TASK",
    "condition": "Cond4",
    "trial_num": 35,
    "trial_length": 5,
    "click_num": 3,
    "RT": 1815,
    "action": 1,
    "reward": -2.6
  },
  {
    "phase": "TASK",
    "condition": "Cond4",
    "trial_num": 35,
    "trial_length": 5,
    "click_num": 4,
    "RT": 1892,
    "action": 1,
    "reward": -3.1
  },
  {
    "phase": "TASK",
    "condition": "Cond4",
    "trial_num": 35,
    "trial_length": 5,
    "click_num": 5,
    "RT": 1222,
    "action": 0,
    "reward": -2.6
  },
  {
    "phase": "TASK",
    "condition": "Cond4",
    "trial_num": 36,
    "trial_length": 7,
    "click_num": 1,
    "RT": 1316,
    "action": 1,
    "reward": -3
  },
  {
    "phase": "TASK",
    "condition": "Cond4",
    "trial_num": 36,
    "trial_length": 7,
    "click_num": 2,
    "RT": 1450,
    "action": 1,
    "reward": -2.3
  },
  {
    "phase": "TASK",
    "condition": "Cond4",
    "trial_num": 36,
    "trial_length": 7,
    "click_num": 3,
    "RT": 1694,
    "action": 0,
    "reward": -2.3
  },
  {
    "phase": "TASK",
    "condition": "Cond4",
    "trial_num": 36,
    "trial_length": 7,
    "click_num": 4,
    "RT": 1015,
    "action": 0,
    "reward": -2.3
  },
  {
    "phase": "TASK",
    "condition": "Cond4",
    "trial_num": 36,
    "trial_length": 7,
    "click_num": 5,
    "RT": 985,
    "action": 0,
    "reward": -2.3
  },
  {
    "phase": "TASK",
    "condition": "Cond4",
    "trial_num": 36,
    "trial_length": 7,
    "click_num": 6,
    "RT": 767,
    "action": 1,
    "reward": -2.2
  },
  {
    "phase": "TASK",
    "condition": "Cond4",
    "trial_num": 36,
    "trial_length": 7,
    "click_num": 7,
    "RT": 1809,
    "action": 0,
    "reward": -2.2
  },
  {
    "phase": "TASK",
    "condition": "Cond4",
    "trial_num": 37,
    "trial_length": 10,
    "click_num": 1,
    "RT": 1583,
    "action": 1,
    "reward": -3.3
  },
  {
    "phase": "TASK",
    "condition": "Cond4",
    "trial_num": 37,
    "trial_length": 10,
    "click_num": 2,
    "RT": 2024,
    "action": 1,
    "reward": -3.4
  },
  {
    "phase": "TASK",
    "condition": "Cond4",
    "trial_num": 37,
    "trial_length": 10,
    "click_num": 3,
    "RT": 1728,
    "action": 1,
    "reward": -4.4
  },
  {
    "phase": "TASK",
    "condition": "Cond4",
    "trial_num": 37,
    "trial_length": 10,
    "click_num": 4,
    "RT": 1337,
    "action": 1,
    "reward": -2.4
  },
  {
    "phase": "TASK",
    "condition": "Cond4",
    "trial_num": 37,
    "trial_length": 10,
    "click_num": 5,
    "RT": 2624,
    "action": 1,
    "reward": -3.3
  },
  {
    "phase": "TASK",
    "condition": "Cond4",
    "trial_num": 37,
    "trial_length": 10,
    "click_num": 6,
    "RT": 1047,
    "action": 0,
    "reward": -2.4
  },
  {
    "phase": "TASK",
    "condition": "Cond4",
    "trial_num": 37,
    "trial_length": 10,
    "click_num": 7,
    "RT": 880,
    "action": 1,
    "reward": -4.2
  },
  {
    "phase": "TASK",
    "condition": "Cond4",
    "trial_num": 37,
    "trial_length": 10,
    "click_num": 8,
    "RT": 912,
    "action": 0,
    "reward": -2.4
  },
  {
    "phase": "TASK",
    "condition": "Cond4",
    "trial_num": 37,
    "trial_length": 10,
    "click_num": 9,
    "RT": 1016,
    "action": 0,
    "reward": -2.4
  },
  {
    "phase": "TASK",
    "condition": "Cond4",
    "trial_num": 37,
    "trial_length": 10,
    "click_num": 10,
    "RT": 4871,
    "action": 0,
    "reward": -2.4
  },
  {
    "phase": "TASK",
    "condition": "Cond4",
    "trial_num": 38,
    "trial_length": 7,
    "click_num": 1,
    "RT": 1575,
    "action": 1,
    "reward": -2.7
  },
  {
    "phase": "TASK",
    "condition": "Cond4",
    "trial_num": 38,
    "trial_length": 7,
    "click_num": 2,
    "RT": 3859,
    "action": 0,
    "reward": -2.7
  },
  {
    "phase": "TASK",
    "condition": "Cond4",
    "trial_num": 38,
    "trial_length": 7,
    "click_num": 3,
    "RT": 1422,
    "action": 1,
    "reward": -3.9
  },
  {
    "phase": "TASK",
    "condition": "Cond4",
    "trial_num": 38,
    "trial_length": 7,
    "click_num": 4,
    "RT": 1152,
    "action": 0,
    "reward": -2.7
  },
  {
    "phase": "TASK",
    "condition": "Cond4",
    "trial_num": 38,
    "trial_length": 7,
    "click_num": 5,
    "RT": 2490,
    "action": 1,
    "reward": -3.3
  },
  {
    "phase": "TASK",
    "condition": "Cond4",
    "trial_num": 38,
    "trial_length": 7,
    "click_num": 6,
    "RT": 1005,
    "action": 0,
    "reward": -2.7
  },
  {
    "phase": "TASK",
    "condition": "Cond4",
    "trial_num": 38,
    "trial_length": 7,
    "click_num": 7,
    "RT": 967,
    "action": 0,
    "reward": -2.7
  },
  {
    "phase": "TASK",
    "condition": "Cond4",
    "trial_num": 39,
    "trial_length": 8,
    "click_num": 1,
    "RT": 1142,
    "action": 1,
    "reward": -2.4
  },
  {
    "phase": "TASK",
    "condition": "Cond4",
    "trial_num": 39,
    "trial_length": 8,
    "click_num": 2,
    "RT": 1624,
    "action": 0,
    "reward": -2.4
  },
  {
    "phase": "TASK",
    "condition": "Cond4",
    "trial_num": 39,
    "trial_length": 8,
    "click_num": 3,
    "RT": 808,
    "action": 0,
    "reward": -2.4
  },
  {
    "phase": "TASK",
    "condition": "Cond4",
    "trial_num": 39,
    "trial_length": 8,
    "click_num": 4,
    "RT": 904,
    "action": 0,
    "reward": -2.4
  },
  {
    "phase": "TASK",
    "condition": "Cond4",
    "trial_num": 39,
    "trial_length": 8,
    "click_num": 5,
    "RT": 1912,
    "action": 0,
    "reward": -2.4
  },
  {
    "phase": "TASK",
    "condition": "Cond4",
    "trial_num": 39,
    "trial_length": 8,
    "click_num": 6,
    "RT": 907,
    "action": 1,
    "reward": -2.4
  },
  {
    "phase": "TASK",
    "condition": "Cond4",
    "trial_num": 39,
    "trial_length": 8,
    "click_num": 7,
    "RT": 2664,
    "action": 1,
    "reward": -3.7
  },
  {
    "phase": "TASK",
    "condition": "Cond4",
    "trial_num": 39,
    "trial_length": 8,
    "click_num": 8,
    "RT": 1448,
    "action": 0,
    "reward": -2.4
  },
  {
    "phase": "TASK",
    "condition": "Cond4",
    "trial_num": 40,
    "trial_length": 7,
    "click_num": 1,
    "RT": 885,
    "action": 1,
    "reward": -4.3
  },
  {
    "phase": "TASK",
    "condition": "Cond4",
    "trial_num": 40,
    "trial_length": 7,
    "click_num": 2,
    "RT": 1483,
    "action": 1,
    "reward": -2.3
  },
  {
    "phase": "TASK",
    "condition": "Cond4",
    "trial_num": 40,
    "trial_length": 7,
    "click_num": 3,
    "RT": 1942,
    "action": 0,
    "reward": -2.3
  },
  {
    "phase": "TASK",
    "condition": "Cond4",
    "trial_num": 40,
    "trial_length": 7,
    "click_num": 4,
    "RT": 858,
    "action": 0,
    "reward": -2.3
  },
  {
    "phase": "TASK",
    "condition": "Cond4",
    "trial_num": 40,
    "trial_length": 7,
    "click_num": 5,
    "RT": 774,
    "action": 0,
    "reward": -2.3
  },
  {
    "phase": "TASK",
    "condition": "Cond4",
    "trial_num": 40,
    "trial_length": 7,
    "click_num": 6,
    "RT": 736,
    "action": 0,
    "reward": -2.3
  },
  {
    "phase": "TASK",
    "condition": "Cond4",
    "trial_num": 40,
    "trial_length": 7,
    "click_num": 7,
    "RT": 731,
    "action": 1,
    "reward": -3.2
  },
  {
    "phase": "TASK",
    "condition": "Cond4",
    "trial_num": 41,
    "trial_length": 8,
    "click_num": 1,
    "RT": 1137,
    "action": 1,
    "reward": -4
  },
  {
    "phase": "TASK",
    "condition": "Cond4",
    "trial_num": 41,
    "trial_length": 8,
    "click_num": 2,
    "RT": 1795,
    "action": 1,
    "reward": -2.3
  },
  {
    "phase": "TASK",
    "condition": "Cond4",
    "trial_num": 41,
    "trial_length": 8,
    "click_num": 3,
    "RT": 1362,
    "action": 1,
    "reward": -2.5
  },
  {
    "phase": "TASK",
    "condition": "Cond4",
    "trial_num": 41,
    "trial_length": 8,
    "click_num": 4,
    "RT": 1232,
    "action": 1,
    "reward": -3.1
  },
  {
    "phase": "TASK",
    "condition": "Cond4",
    "trial_num": 41,
    "trial_length": 8,
    "click_num": 5,
    "RT": 1208,
    "action": 0,
    "reward": -2.3
  },
  {
    "phase": "TASK",
    "condition": "Cond4",
    "trial_num": 41,
    "trial_length": 8,
    "click_num": 6,
    "RT": 1456,
    "action": 0,
    "reward": -2.3
  },
  {
    "phase": "TASK",
    "condition": "Cond4",
    "trial_num": 41,
    "trial_length": 8,
    "click_num": 7,
    "RT": 744,
    "action": 0,
    "reward": -2.3
  },
  {
    "phase": "TASK",
    "condition": "Cond4",
    "trial_num": 41,
    "trial_length": 8,
    "click_num": 8,
    "RT": 787,
    "action": 0,
    "reward": -2.3
  },
  {
    "phase": "TASK",
    "condition": "Cond4",
    "trial_num": 42,
    "trial_length": 5,
    "click_num": 1,
    "RT": 1161,
    "action": 1,
    "reward": -2.5
  },
  {
    "phase": "TASK",
    "condition": "Cond4",
    "trial_num": 42,
    "trial_length": 5,
    "click_num": 2,
    "RT": 2213,
    "action": 1,
    "reward": -3.1
  },
  {
    "phase": "TASK",
    "condition": "Cond4",
    "trial_num": 42,
    "trial_length": 5,
    "click_num": 3,
    "RT": 1481,
    "action": 0,
    "reward": -2.5
  },
  {
    "phase": "TASK",
    "condition": "Cond4",
    "trial_num": 42,
    "trial_length": 5,
    "click_num": 4,
    "RT": 896,
    "action": 0,
    "reward": -2.5
  },
  {
    "phase": "TASK",
    "condition": "Cond4",
    "trial_num": 42,
    "trial_length": 5,
    "click_num": 5,
    "RT": 1071,
    "action": 1,
    "reward": -3.5
  },
  {
    "phase": "TASK",
    "condition": "Cond4",
    "trial_num": 43,
    "trial_length": 9,
    "click_num": 1,
    "RT": 1022,
    "action": 1,
    "reward": -3.1
  },
  {
    "phase": "TASK",
    "condition": "Cond4",
    "trial_num": 43,
    "trial_length": 9,
    "click_num": 2,
    "RT": 1087,
    "action": 1,
    "reward": -3.9
  },
  {
    "phase": "TASK",
    "condition": "Cond4",
    "trial_num": 43,
    "trial_length": 9,
    "click_num": 3,
    "RT": 1105,
    "action": 1,
    "reward": -2.7
  },
  {
    "phase": "TASK",
    "condition": "Cond4",
    "trial_num": 43,
    "trial_length": 9,
    "click_num": 4,
    "RT": 1722,
    "action": 1,
    "reward": -3.1
  },
  {
    "phase": "TASK",
    "condition": "Cond4",
    "trial_num": 43,
    "trial_length": 9,
    "click_num": 5,
    "RT": 1017,
    "action": 1,
    "reward": -4
  },
  {
    "phase": "TASK",
    "condition": "Cond4",
    "trial_num": 43,
    "trial_length": 9,
    "click_num": 6,
    "RT": 1493,
    "action": 1,
    "reward": -2.7
  },
  {
    "phase": "TASK",
    "condition": "Cond4",
    "trial_num": 43,
    "trial_length": 9,
    "click_num": 7,
    "RT": 3810,
    "action": 0,
    "reward": -2.7
  },
  {
    "phase": "TASK",
    "condition": "Cond4",
    "trial_num": 43,
    "trial_length": 9,
    "click_num": 8,
    "RT": 1022,
    "action": 0,
    "reward": -2.7
  },
  {
    "phase": "TASK",
    "condition": "Cond4",
    "trial_num": 43,
    "trial_length": 9,
    "click_num": 9,
    "RT": 880,
    "action": 0,
    "reward": -2.7
  },
  {
    "phase": "TASK",
    "condition": "Cond4",
    "trial_num": 44,
    "trial_length": 9,
    "click_num": 1,
    "RT": 1286,
    "action": 1,
    "reward": -3.5
  },
  {
    "phase": "TASK",
    "condition": "Cond4",
    "trial_num": 44,
    "trial_length": 9,
    "click_num": 2,
    "RT": 1591,
    "action": 1,
    "reward": -3.8
  },
  {
    "phase": "TASK",
    "condition": "Cond4",
    "trial_num": 44,
    "trial_length": 9,
    "click_num": 3,
    "RT": 1996,
    "action": 1,
    "reward": -3.3
  },
  {
    "phase": "TASK",
    "condition": "Cond4",
    "trial_num": 44,
    "trial_length": 9,
    "click_num": 4,
    "RT": 1229,
    "action": 1,
    "reward": -3.1
  },
  {
    "phase": "TASK",
    "condition": "Cond4",
    "trial_num": 44,
    "trial_length": 9,
    "click_num": 5,
    "RT": 1136,
    "action": 1,
    "reward": -3.4
  },
  {
    "phase": "TASK",
    "condition": "Cond4",
    "trial_num": 44,
    "trial_length": 9,
    "click_num": 6,
    "RT": 1031,
    "action": 1,
    "reward": -3.9
  },
  {
    "phase": "TASK",
    "condition": "Cond4",
    "trial_num": 44,
    "trial_length": 9,
    "click_num": 7,
    "RT": 1817,
    "action": 1,
    "reward": -3.3
  },
  {
    "phase": "TASK",
    "condition": "Cond4",
    "trial_num": 44,
    "trial_length": 9,
    "click_num": 8,
    "RT": 1080,
    "action": 1,
    "reward": -3.8
  },
  {
    "phase": "TASK",
    "condition": "Cond4",
    "trial_num": 44,
    "trial_length": 9,
    "click_num": 9,
    "RT": 1055,
    "action": 1,
    "reward": -3
  },
  {
    "phase": "TASK",
    "condition": "Cond4",
    "trial_num": 45,
    "trial_length": 9,
    "click_num": 1,
    "RT": 1422,
    "action": 1,
    "reward": -2.9
  },
  {
    "phase": "TASK",
    "condition": "Cond4",
    "trial_num": 45,
    "trial_length": 9,
    "click_num": 2,
    "RT": 3921,
    "action": 1,
    "reward": -3.5
  },
  {
    "phase": "TASK",
    "condition": "Cond4",
    "trial_num": 45,
    "trial_length": 9,
    "click_num": 3,
    "RT": 1336,
    "action": 0,
    "reward": -2.9
  },
  {
    "phase": "TASK",
    "condition": "Cond4",
    "trial_num": 45,
    "trial_length": 9,
    "click_num": 4,
    "RT": 679,
    "action": 1,
    "reward": -1.8
  },
  {
    "phase": "TASK",
    "condition": "Cond4",
    "trial_num": 45,
    "trial_length": 9,
    "click_num": 5,
    "RT": 1177,
    "action": 0,
    "reward": -1.8
  },
  {
    "phase": "TASK",
    "condition": "Cond4",
    "trial_num": 45,
    "trial_length": 9,
    "click_num": 6,
    "RT": 687,
    "action": 0,
    "reward": -1.8
  },
  {
    "phase": "TASK",
    "condition": "Cond4",
    "trial_num": 45,
    "trial_length": 9,
    "click_num": 7,
    "RT": 648,
    "action": 0,
    "reward": -1.8
  },
  {
    "phase": "TASK",
    "condition": "Cond4",
    "trial_num": 45,
    "trial_length": 9,
    "click_num": 8,
    "RT": 617,
    "action": 0,
    "reward": -1.8
  },
  {
    "phase": "TASK",
    "condition": "Cond4",
    "trial_num": 45,
    "trial_length": 9,
    "click_num": 9,
    "RT": 663,
    "action": 0,
    "reward": -1.8
  },
  {
    "phase": "TASK",
    "condition": "Cond4",
    "trial_num": 46,
    "trial_length": 6,
    "click_num": 1,
    "RT": 1478,
    "action": 1,
    "reward": -3.2
  },
  {
    "phase": "TASK",
    "condition": "Cond4",
    "trial_num": 46,
    "trial_length": 6,
    "click_num": 2,
    "RT": 11520,
    "action": 1,
    "reward": -4.2
  },
  {
    "phase": "TASK",
    "condition": "Cond4",
    "trial_num": 46,
    "trial_length": 6,
    "click_num": 3,
    "RT": 1627,
    "action": 1,
    "reward": -2.9
  },
  {
    "phase": "TASK",
    "condition": "Cond4",
    "trial_num": 46,
    "trial_length": 6,
    "click_num": 4,
    "RT": 1381,
    "action": 1,
    "reward": -3
  },
  {
    "phase": "TASK",
    "condition": "Cond4",
    "trial_num": 46,
    "trial_length": 6,
    "click_num": 5,
    "RT": 1216,
    "action": 1,
    "reward": -2.5
  },
  {
    "phase": "TASK",
    "condition": "Cond4",
    "trial_num": 46,
    "trial_length": 6,
    "click_num": 6,
    "RT": 1815,
    "action": 0,
    "reward": -2.5
  },
  {
    "phase": "TASK",
    "condition": "Cond4",
    "trial_num": 47,
    "trial_length": 6,
    "click_num": 1,
    "RT": 1157,
    "action": 1,
    "reward": -3.2
  },
  {
    "phase": "TASK",
    "condition": "Cond4",
    "trial_num": 47,
    "trial_length": 6,
    "click_num": 2,
    "RT": 1752,
    "action": 1,
    "reward": -2.1
  },
  {
    "phase": "TASK",
    "condition": "Cond4",
    "trial_num": 47,
    "trial_length": 6,
    "click_num": 3,
    "RT": 1497,
    "action": 0,
    "reward": -2.1
  },
  {
    "phase": "TASK",
    "condition": "Cond4",
    "trial_num": 47,
    "trial_length": 6,
    "click_num": 4,
    "RT": 751,
    "action": 0,
    "reward": -2.1
  },
  {
    "phase": "TASK",
    "condition": "Cond4",
    "trial_num": 47,
    "trial_length": 6,
    "click_num": 5,
    "RT": 776,
    "action": 0,
    "reward": -2.1
  },
  {
    "phase": "TASK",
    "condition": "Cond4",
    "trial_num": 47,
    "trial_length": 6,
    "click_num": 6,
    "RT": 704,
    "action": 0,
    "reward": -2.1
  },
  {
    "phase": "TASK",
    "condition": "Cond4",
    "trial_num": 48,
    "trial_length": 6,
    "click_num": 1,
    "RT": 1168,
    "action": 1,
    "reward": -2.7
  },
  {
    "phase": "TASK",
    "condition": "Cond4",
    "trial_num": 48,
    "trial_length": 6,
    "click_num": 2,
    "RT": 1375,
    "action": 0,
    "reward": -2.7
  },
  {
    "phase": "TASK",
    "condition": "Cond4",
    "trial_num": 48,
    "trial_length": 6,
    "click_num": 3,
    "RT": 1000,
    "action": 1,
    "reward": -3.7
  },
  {
    "phase": "TASK",
    "condition": "Cond4",
    "trial_num": 48,
    "trial_length": 6,
    "click_num": 4,
    "RT": 1018,
    "action": 0,
    "reward": -2.7
  },
  {
    "phase": "TASK",
    "condition": "Cond4",
    "trial_num": 48,
    "trial_length": 6,
    "click_num": 5,
    "RT": 1007,
    "action": 1,
    "reward": -3.4
  },
  {
    "phase": "TASK",
    "condition": "Cond4",
    "trial_num": 48,
    "trial_length": 6,
    "click_num": 6,
    "RT": 1024,
    "action": 0,
    "reward": -2.7
  },
  {
    "phase": "TASK",
    "condition": "Cond4",
    "trial_num": 49,
    "trial_length": 5,
    "click_num": 1,
    "RT": 1222,
    "action": 1,
    "reward": -3
  },
  {
    "phase": "TASK",
    "condition": "Cond4",
    "trial_num": 49,
    "trial_length": 5,
    "click_num": 2,
    "RT": 1740,
    "action": 1,
    "reward": -2.8
  },
  {
    "phase": "TASK",
    "condition": "Cond4",
    "trial_num": 49,
    "trial_length": 5,
    "click_num": 3,
    "RT": 2117,
    "action": 1,
    "reward": -2.5
  },
  {
    "phase": "TASK",
    "condition": "Cond4",
    "trial_num": 49,
    "trial_length": 5,
    "click_num": 4,
    "RT": 1807,
    "action": 0,
    "reward": -2.5
  },
  {
    "phase": "TASK",
    "condition": "Cond4",
    "trial_num": 49,
    "trial_length": 5,
    "click_num": 5,
    "RT": 883,
    "action": 0,
    "reward": -2.5
  },
  {
    "phase": "TASK",
    "condition": "Cond4",
    "trial_num": 50,
    "trial_length": 5,
    "click_num": 1,
    "RT": 1172,
    "action": 1,
    "reward": -3.3
  },
  {
    "phase": "TASK",
    "condition": "Cond4",
    "trial_num": 50,
    "trial_length": 5,
    "click_num": 2,
    "RT": 2423,
    "action": 1,
    "reward": -3.5
  },
  {
    "phase": "TASK",
    "condition": "Cond4",
    "trial_num": 50,
    "trial_length": 5,
    "click_num": 3,
    "RT": 1928,
    "action": 1,
    "reward": -2.6
  },
  {
    "phase": "TASK",
    "condition": "Cond4",
    "trial_num": 50,
    "trial_length": 5,
    "click_num": 4,
    "RT": 1145,
    "action": 1,
    "reward": -2.4
  },
  {
    "phase": "TASK",
    "condition": "Cond4",
    "trial_num": 50,
    "trial_length": 5,
    "click_num": 5,
    "RT": 2589,
    "action": 0,
    "reward": -2.4
  },
  {
    "phase": "TASK",
    "condition": "Cond4",
    "trial_num": 51,
    "trial_length": 10,
    "click_num": 1,
    "RT": 919,
    "action": 1,
    "reward": -2.4
  },
  {
    "phase": "TASK",
    "condition": "Cond4",
    "trial_num": 51,
    "trial_length": 10,
    "click_num": 2,
    "RT": 2411,
    "action": 0,
    "reward": -2.4
  },
  {
    "phase": "TASK",
    "condition": "Cond4",
    "trial_num": 51,
    "trial_length": 10,
    "click_num": 3,
    "RT": 708,
    "action": 0,
    "reward": -2.4
  },
  {
    "phase": "TASK",
    "condition": "Cond4",
    "trial_num": 51,
    "trial_length": 10,
    "click_num": 4,
    "RT": 629,
    "action": 0,
    "reward": -2.4
  },
  {
    "phase": "TASK",
    "condition": "Cond4",
    "trial_num": 51,
    "trial_length": 10,
    "click_num": 5,
    "RT": 662,
    "action": 0,
    "reward": -2.4
  },
  {
    "phase": "TASK",
    "condition": "Cond4",
    "trial_num": 51,
    "trial_length": 10,
    "click_num": 6,
    "RT": 678,
    "action": 0,
    "reward": -2.4
  },
  {
    "phase": "TASK",
    "condition": "Cond4",
    "trial_num": 51,
    "trial_length": 10,
    "click_num": 7,
    "RT": 720,
    "action": 0,
    "reward": -2.4
  },
  {
    "phase": "TASK",
    "condition": "Cond4",
    "trial_num": 51,
    "trial_length": 10,
    "click_num": 8,
    "RT": 842,
    "action": 1,
    "reward": -3.7
  },
  {
    "phase": "TASK",
    "condition": "Cond4",
    "trial_num": 51,
    "trial_length": 10,
    "click_num": 9,
    "RT": 1574,
    "action": 0,
    "reward": -2.4
  },
  {
    "phase": "TASK",
    "condition": "Cond4",
    "trial_num": 51,
    "trial_length": 10,
    "click_num": 10,
    "RT": 889,
    "action": 1,
    "reward": -3.7
  },
  {
    "phase": "TASK",
    "condition": "Cond4",
    "trial_num": 52,
    "trial_length": 7,
    "click_num": 1,
    "RT": 996,
    "action": 1,
    "reward": -3.2
  },
  {
    "phase": "TASK",
    "condition": "Cond4",
    "trial_num": 52,
    "trial_length": 7,
    "click_num": 2,
    "RT": 1063,
    "action": 1,
    "reward": -3.6
  },
  {
    "phase": "TASK",
    "condition": "Cond4",
    "trial_num": 52,
    "trial_length": 7,
    "click_num": 3,
    "RT": 884,
    "action": 1,
    "reward": -4
  },
  {
    "phase": "TASK",
    "condition": "Cond4",
    "trial_num": 52,
    "trial_length": 7,
    "click_num": 4,
    "RT": 1301,
    "action": 1,
    "reward": -2.1
  },
  {
    "phase": "TASK",
    "condition": "Cond4",
    "trial_num": 52,
    "trial_length": 7,
    "click_num": 5,
    "RT": 1169,
    "action": 1,
    "reward": -3.6
  },
  {
    "phase": "TASK",
    "condition": "Cond4",
    "trial_num": 52,
    "trial_length": 7,
    "click_num": 6,
    "RT": 1190,
    "action": 0,
    "reward": -2.1
  },
  {
    "phase": "TASK",
    "condition": "Cond4",
    "trial_num": 52,
    "trial_length": 7,
    "click_num": 7,
    "RT": 672,
    "action": 0,
    "reward": -2.1
  },
  {
    "phase": "TASK",
    "condition": "Cond4",
    "trial_num": 53,
    "trial_length": 9,
    "click_num": 1,
    "RT": 1138,
    "action": 1,
    "reward": -3.6
  },
  {
    "phase": "TASK",
    "condition": "Cond4",
    "trial_num": 53,
    "trial_length": 9,
    "click_num": 2,
    "RT": 1777,
    "action": 1,
    "reward": -2.3
  },
  {
    "phase": "TASK",
    "condition": "Cond4",
    "trial_num": 53,
    "trial_length": 9,
    "click_num": 3,
    "RT": 1063,
    "action": 1,
    "reward": -4.2
  },
  {
    "phase": "TASK",
    "condition": "Cond4",
    "trial_num": 53,
    "trial_length": 9,
    "click_num": 4,
    "RT": 1122,
    "action": 1,
    "reward": -3.5
  },
  {
    "phase": "TASK",
    "condition": "Cond4",
    "trial_num": 53,
    "trial_length": 9,
    "click_num": 5,
    "RT": 944,
    "action": 1,
    "reward": -2.7
  },
  {
    "phase": "TASK",
    "condition": "Cond4",
    "trial_num": 53,
    "trial_length": 9,
    "click_num": 6,
    "RT": 1021,
    "action": 1,
    "reward": -2.8
  },
  {
    "phase": "TASK",
    "condition": "Cond4",
    "trial_num": 53,
    "trial_length": 9,
    "click_num": 7,
    "RT": 1361,
    "action": 0,
    "reward": -2.3
  },
  {
    "phase": "TASK",
    "condition": "Cond4",
    "trial_num": 53,
    "trial_length": 9,
    "click_num": 8,
    "RT": 714,
    "action": 0,
    "reward": -2.3
  },
  {
    "phase": "TASK",
    "condition": "Cond4",
    "trial_num": 53,
    "trial_length": 9,
    "click_num": 9,
    "RT": 719,
    "action": 0,
    "reward": -2.3
  },
  {
    "phase": "TASK",
    "condition": "Cond4",
    "trial_num": 54,
    "trial_length": 7,
    "click_num": 1,
    "RT": 1351,
    "action": 1,
    "reward": -3.2
  },
  {
    "phase": "TASK",
    "condition": "Cond4",
    "trial_num": 54,
    "trial_length": 7,
    "click_num": 2,
    "RT": 918,
    "action": 1,
    "reward": -4
  },
  {
    "phase": "TASK",
    "condition": "Cond4",
    "trial_num": 54,
    "trial_length": 7,
    "click_num": 3,
    "RT": 1194,
    "action": 1,
    "reward": -3.2
  },
  {
    "phase": "TASK",
    "condition": "Cond4",
    "trial_num": 54,
    "trial_length": 7,
    "click_num": 4,
    "RT": 1385,
    "action": 1,
    "reward": -3.1
  },
  {
    "phase": "TASK",
    "condition": "Cond4",
    "trial_num": 54,
    "trial_length": 7,
    "click_num": 5,
    "RT": 1166,
    "action": 1,
    "reward": -2.9
  },
  {
    "phase": "TASK",
    "condition": "Cond4",
    "trial_num": 54,
    "trial_length": 7,
    "click_num": 6,
    "RT": 1143,
    "action": 1,
    "reward": -2.3
  },
  {
    "phase": "TASK",
    "condition": "Cond4",
    "trial_num": 54,
    "trial_length": 7,
    "click_num": 7,
    "RT": 1032,
    "action": 1,
    "reward": -3.4
  },
  {
    "phase": "TASK",
    "condition": "Cond4",
    "trial_num": 55,
    "trial_length": 8,
    "click_num": 1,
    "RT": 1015,
    "action": 1,
    "reward": -3.3
  },
  {
    "phase": "TASK",
    "condition": "Cond4",
    "trial_num": 55,
    "trial_length": 8,
    "click_num": 2,
    "RT": 1287,
    "action": 1,
    "reward": -2.8
  },
  {
    "phase": "TASK",
    "condition": "Cond4",
    "trial_num": 55,
    "trial_length": 8,
    "click_num": 3,
    "RT": 1750,
    "action": 1,
    "reward": -3.5
  },
  {
    "phase": "TASK",
    "condition": "Cond4",
    "trial_num": 55,
    "trial_length": 8,
    "click_num": 4,
    "RT": 1079,
    "action": 1,
    "reward": -3.5
  },
  {
    "phase": "TASK",
    "condition": "Cond4",
    "trial_num": 55,
    "trial_length": 8,
    "click_num": 5,
    "RT": 1226,
    "action": 1,
    "reward": -2
  },
  {
    "phase": "TASK",
    "condition": "Cond4",
    "trial_num": 55,
    "trial_length": 8,
    "click_num": 6,
    "RT": 1649,
    "action": 0,
    "reward": -2
  },
  {
    "phase": "TASK",
    "condition": "Cond4",
    "trial_num": 55,
    "trial_length": 8,
    "click_num": 7,
    "RT": 744,
    "action": 0,
    "reward": -2
  },
  {
    "phase": "TASK",
    "condition": "Cond4",
    "trial_num": 55,
    "trial_length": 8,
    "click_num": 8,
    "RT": 703,
    "action": 0,
    "reward": -2
  },
  {
    "phase": "TASK",
    "condition": "Cond4",
    "trial_num": 56,
    "trial_length": 7,
    "click_num": 1,
    "RT": 750,
    "action": 1,
    "reward": -2.6
  },
  {
    "phase": "TASK",
    "condition": "Cond4",
    "trial_num": 56,
    "trial_length": 7,
    "click_num": 2,
    "RT": 1116,
    "action": 1,
    "reward": -2.9
  },
  {
    "phase": "TASK",
    "condition": "Cond4",
    "trial_num": 56,
    "trial_length": 7,
    "click_num": 3,
    "RT": 1133,
    "action": 0,
    "reward": -2.6
  },
  {
    "phase": "TASK",
    "condition": "Cond4",
    "trial_num": 56,
    "trial_length": 7,
    "click_num": 4,
    "RT": 792,
    "action": 1,
    "reward": -3
  },
  {
    "phase": "TASK",
    "condition": "Cond4",
    "trial_num": 56,
    "trial_length": 7,
    "click_num": 5,
    "RT": 1471,
    "action": 0,
    "reward": -2.6
  },
  {
    "phase": "TASK",
    "condition": "Cond4",
    "trial_num": 56,
    "trial_length": 7,
    "click_num": 6,
    "RT": 698,
    "action": 1,
    "reward": -3.1
  },
  {
    "phase": "TASK",
    "condition": "Cond4",
    "trial_num": 56,
    "trial_length": 7,
    "click_num": 7,
    "RT": 1088,
    "action": 0,
    "reward": -2.6
  },
  {
    "phase": "TASK",
    "condition": "Cond4",
    "trial_num": 57,
    "trial_length": 5,
    "click_num": 1,
    "RT": 1015,
    "action": 1,
    "reward": -2.5
  },
  {
    "phase": "TASK",
    "condition": "Cond4",
    "trial_num": 57,
    "trial_length": 5,
    "click_num": 2,
    "RT": 1042,
    "action": 1,
    "reward": -3.5
  },
  {
    "phase": "TASK",
    "condition": "Cond4",
    "trial_num": 57,
    "trial_length": 5,
    "click_num": 3,
    "RT": 1701,
    "action": 1,
    "reward": -3.3
  },
  {
    "phase": "TASK",
    "condition": "Cond4",
    "trial_num": 57,
    "trial_length": 5,
    "click_num": 4,
    "RT": 1000,
    "action": 0,
    "reward": -2.5
  },
  {
    "phase": "TASK",
    "condition": "Cond4",
    "trial_num": 57,
    "trial_length": 5,
    "click_num": 5,
    "RT": 664,
    "action": 0,
    "reward": -2.5
  },
  {
    "phase": "TASK",
    "condition": "Cond4",
    "trial_num": 58,
    "trial_length": 7,
    "click_num": 1,
    "RT": 1498,
    "action": 1,
    "reward": -2.8
  },
  {
    "phase": "TASK",
    "condition": "Cond4",
    "trial_num": 58,
    "trial_length": 7,
    "click_num": 2,
    "RT": 1902,
    "action": 1,
    "reward": -3.5
  },
  {
    "phase": "TASK",
    "condition": "Cond4",
    "trial_num": 58,
    "trial_length": 7,
    "click_num": 3,
    "RT": 1079,
    "action": 1,
    "reward": -2.7
  },
  {
    "phase": "TASK",
    "condition": "Cond4",
    "trial_num": 58,
    "trial_length": 7,
    "click_num": 4,
    "RT": 983,
    "action": 1,
    "reward": -2.9
  },
  {
    "phase": "TASK",
    "condition": "Cond4",
    "trial_num": 58,
    "trial_length": 7,
    "click_num": 5,
    "RT": 1593,
    "action": 0,
    "reward": -2.7
  },
  {
    "phase": "TASK",
    "condition": "Cond4",
    "trial_num": 58,
    "trial_length": 7,
    "click_num": 6,
    "RT": 688,
    "action": 0,
    "reward": -2.7
  },
  {
    "phase": "TASK",
    "condition": "Cond4",
    "trial_num": 58,
    "trial_length": 7,
    "click_num": 7,
    "RT": 1767,
    "action": 0,
    "reward": -2.7
  },
  {
    "phase": "TASK",
    "condition": "Cond4",
    "trial_num": 59,
    "trial_length": 5,
    "click_num": 1,
    "RT": 1433,
    "action": 1,
    "reward": -2.7
  },
  {
    "phase": "TASK",
    "condition": "Cond4",
    "trial_num": 59,
    "trial_length": 5,
    "click_num": 2,
    "RT": 1935,
    "action": 1,
    "reward": -3
  },
  {
    "phase": "TASK",
    "condition": "Cond4",
    "trial_num": 59,
    "trial_length": 5,
    "click_num": 3,
    "RT": 1311,
    "action": 1,
    "reward": -1.4
  },
  {
    "phase": "TASK",
    "condition": "Cond4",
    "trial_num": 59,
    "trial_length": 5,
    "click_num": 4,
    "RT": 1386,
    "action": 0,
    "reward": -1.4
  },
  {
    "phase": "TASK",
    "condition": "Cond4",
    "trial_num": 59,
    "trial_length": 5,
    "click_num": 5,
    "RT": 958,
    "action": 0,
    "reward": -1.4
  },
  {
    "phase": "TASK",
    "condition": "Cond4",
    "trial_num": 60,
    "trial_length": 8,
    "click_num": 1,
    "RT": 1033,
    "action": 1,
    "reward": -3.2
  },
  {
    "phase": "TASK",
    "condition": "Cond4",
    "trial_num": 60,
    "trial_length": 8,
    "click_num": 2,
    "RT": 1349,
    "action": 1,
    "reward": -3.2
  },
  {
    "phase": "TASK",
    "condition": "Cond4",
    "trial_num": 60,
    "trial_length": 8,
    "click_num": 3,
    "RT": 914,
    "action": 1,
    "reward": -3.5
  },
  {
    "phase": "TASK",
    "condition": "Cond4",
    "trial_num": 60,
    "trial_length": 8,
    "click_num": 4,
    "RT": 782,
    "action": 1,
    "reward": -2.7
  },
  {
    "phase": "TASK",
    "condition": "Cond4",
    "trial_num": 60,
    "trial_length": 8,
    "click_num": 5,
    "RT": 791,
    "action": 1,
    "reward": -2.8
  },
  {
    "phase": "TASK",
    "condition": "Cond4",
    "trial_num": 60,
    "trial_length": 8,
    "click_num": 6,
    "RT": 948,
    "action": 1,
    "reward": -2.3
  },
  {
    "phase": "TASK",
    "condition": "Cond4",
    "trial_num": 60,
    "trial_length": 8,
    "click_num": 7,
    "RT": 1495,
    "action": 1,
    "reward": -2.9
  },
  {
    "phase": "TASK",
    "condition": "Cond4",
    "trial_num": 60,
    "trial_length": 8,
    "click_num": 8,
    "RT": 1184,
    "action": 1,
    "reward": -2.7
  },
  {
    "phase": "TASK",
    "condition": "Cond4",
    "trial_num": 61,
    "trial_length": 9,
    "click_num": 1,
    "RT": 956,
    "action": 1,
    "reward": -2.7
  },
  {
    "phase": "TASK",
    "condition": "Cond4",
    "trial_num": 61,
    "trial_length": 9,
    "click_num": 2,
    "RT": 1113,
    "action": 1,
    "reward": -3.3
  },
  {
    "phase": "TASK",
    "condition": "Cond4",
    "trial_num": 61,
    "trial_length": 9,
    "click_num": 3,
    "RT": 1032,
    "action": 1,
    "reward": -2.1
  },
  {
    "phase": "TASK",
    "condition": "Cond4",
    "trial_num": 61,
    "trial_length": 9,
    "click_num": 4,
    "RT": 1511,
    "action": 1,
    "reward": -3.3
  },
  {
    "phase": "TASK",
    "condition": "Cond4",
    "trial_num": 61,
    "trial_length": 9,
    "click_num": 5,
    "RT": 1003,
    "action": 1,
    "reward": -2.4
  },
  {
    "phase": "TASK",
    "condition": "Cond4",
    "trial_num": 61,
    "trial_length": 9,
    "click_num": 6,
    "RT": 1053,
    "action": 1,
    "reward": -4.7
  },
  {
    "phase": "TASK",
    "condition": "Cond4",
    "trial_num": 61,
    "trial_length": 9,
    "click_num": 7,
    "RT": 1776,
    "action": 1,
    "reward": -2.7
  },
  {
    "phase": "TASK",
    "condition": "Cond4",
    "trial_num": 61,
    "trial_length": 9,
    "click_num": 8,
    "RT": 999,
    "action": 0,
    "reward": -2.1
  },
  {
    "phase": "TASK",
    "condition": "Cond4",
    "trial_num": 61,
    "trial_length": 9,
    "click_num": 9,
    "RT": 713,
    "action": 0,
    "reward": -2.1
  },
  {
    "phase": "TASK",
    "condition": "Cond4",
    "trial_num": 62,
    "trial_length": 5,
    "click_num": 1,
    "RT": 1275,
    "action": 1,
    "reward": -3.4
  },
  {
    "phase": "TASK",
    "condition": "Cond4",
    "trial_num": 62,
    "trial_length": 5,
    "click_num": 2,
    "RT": 1124,
    "action": 1,
    "reward": -2.2
  },
  {
    "phase": "TASK",
    "condition": "Cond4",
    "trial_num": 62,
    "trial_length": 5,
    "click_num": 3,
    "RT": 962,
    "action": 1,
    "reward": -2.2
  },
  {
    "phase": "TASK",
    "condition": "Cond4",
    "trial_num": 62,
    "trial_length": 5,
    "click_num": 4,
    "RT": 1277,
    "action": 0,
    "reward": -2.2
  },
  {
    "phase": "TASK",
    "condition": "Cond4",
    "trial_num": 62,
    "trial_length": 5,
    "click_num": 5,
    "RT": 1035,
    "action": 0,
    "reward": -2.2
  },
  {
    "phase": "TASK",
    "condition": "Cond4",
    "trial_num": 63,
    "trial_length": 8,
    "click_num": 1,
    "RT": 1133,
    "action": 1,
    "reward": -2.8
  },
  {
    "phase": "TASK",
    "condition": "Cond4",
    "trial_num": 63,
    "trial_length": 8,
    "click_num": 2,
    "RT": 1766,
    "action": 1,
    "reward": -2.5
  },
  {
    "phase": "TASK",
    "condition": "Cond4",
    "trial_num": 63,
    "trial_length": 8,
    "click_num": 3,
    "RT": 944,
    "action": 1,
    "reward": -2.5
  },
  {
    "phase": "TASK",
    "condition": "Cond4",
    "trial_num": 63,
    "trial_length": 8,
    "click_num": 4,
    "RT": 1265,
    "action": 0,
    "reward": -2.5
  },
  {
    "phase": "TASK",
    "condition": "Cond4",
    "trial_num": 63,
    "trial_length": 8,
    "click_num": 5,
    "RT": 609,
    "action": 0,
    "reward": -2.5
  },
  {
    "phase": "TASK",
    "condition": "Cond4",
    "trial_num": 63,
    "trial_length": 8,
    "click_num": 6,
    "RT": 830,
    "action": 0,
    "reward": -2.5
  },
  {
    "phase": "TASK",
    "condition": "Cond4",
    "trial_num": 63,
    "trial_length": 8,
    "click_num": 7,
    "RT": 722,
    "action": 0,
    "reward": -2.5
  },
  {
    "phase": "TASK",
    "condition": "Cond4",
    "trial_num": 63,
    "trial_length": 8,
    "click_num": 8,
    "RT": 680,
    "action": 0,
    "reward": -2.5
  },
  {
    "phase": "TASK",
    "condition": "Cond4",
    "trial_num": 64,
    "trial_length": 8,
    "click_num": 1,
    "RT": 671,
    "action": 1,
    "reward": -2.8
  },
  {
    "phase": "TASK",
    "condition": "Cond4",
    "trial_num": 64,
    "trial_length": 8,
    "click_num": 2,
    "RT": 855,
    "action": 1,
    "reward": -3.5
  },
  {
    "phase": "TASK",
    "condition": "Cond4",
    "trial_num": 64,
    "trial_length": 8,
    "click_num": 3,
    "RT": 1160,
    "action": 0,
    "reward": -2.8
  },
  {
    "phase": "TASK",
    "condition": "Cond4",
    "trial_num": 64,
    "trial_length": 8,
    "click_num": 4,
    "RT": 664,
    "action": 1,
    "reward": -3.8
  },
  {
    "phase": "TASK",
    "condition": "Cond4",
    "trial_num": 64,
    "trial_length": 8,
    "click_num": 5,
    "RT": 839,
    "action": 1,
    "reward": -3.7
  },
  {
    "phase": "TASK",
    "condition": "Cond4",
    "trial_num": 64,
    "trial_length": 8,
    "click_num": 6,
    "RT": 713,
    "action": 1,
    "reward": -2.8
  },
  {
    "phase": "TASK",
    "condition": "Cond4",
    "trial_num": 64,
    "trial_length": 8,
    "click_num": 7,
    "RT": 803,
    "action": 1,
    "reward": -2.6
  },
  {
    "phase": "TASK",
    "condition": "Cond4",
    "trial_num": 64,
    "trial_length": 8,
    "click_num": 8,
    "RT": 1199,
    "action": 0,
    "reward": -2.6
  },
  {
    "phase": "TASK",
    "condition": "Cond4",
    "trial_num": 65,
    "trial_length": 9,
    "click_num": 1,
    "RT": 909,
    "action": 1,
    "reward": -2.5
  },
  {
    "phase": "TASK",
    "condition": "Cond4",
    "trial_num": 65,
    "trial_length": 9,
    "click_num": 2,
    "RT": 1347,
    "action": 0,
    "reward": -2.5
  },
  {
    "phase": "TASK",
    "condition": "Cond4",
    "trial_num": 65,
    "trial_length": 9,
    "click_num": 3,
    "RT": 645,
    "action": 1,
    "reward": -2.4
  },
  {
    "phase": "TASK",
    "condition": "Cond4",
    "trial_num": 65,
    "trial_length": 9,
    "click_num": 4,
    "RT": 889,
    "action": 0,
    "reward": -2.4
  },
  {
    "phase": "TASK",
    "condition": "Cond4",
    "trial_num": 65,
    "trial_length": 9,
    "click_num": 5,
    "RT": 626,
    "action": 1,
    "reward": -2.9
  },
  {
    "phase": "TASK",
    "condition": "Cond4",
    "trial_num": 65,
    "trial_length": 9,
    "click_num": 6,
    "RT": 949,
    "action": 0,
    "reward": -2.4
  },
  {
    "phase": "TASK",
    "condition": "Cond4",
    "trial_num": 65,
    "trial_length": 9,
    "click_num": 7,
    "RT": 696,
    "action": 1,
    "reward": -2.6
  },
  {
    "phase": "TASK",
    "condition": "Cond4",
    "trial_num": 65,
    "trial_length": 9,
    "click_num": 8,
    "RT": 826,
    "action": 0,
    "reward": -2.4
  },
  {
    "phase": "TASK",
    "condition": "Cond4",
    "trial_num": 65,
    "trial_length": 9,
    "click_num": 9,
    "RT": 630,
    "action": 0,
    "reward": -2.4
  },
  {
    "phase": "TASK",
    "condition": "Cond4",
    "trial_num": 66,
    "trial_length": 6,
    "click_num": 1,
    "RT": 906,
    "action": 1,
    "reward": -3.3
  },
  {
    "phase": "TASK",
    "condition": "Cond4",
    "trial_num": 66,
    "trial_length": 6,
    "click_num": 2,
    "RT": 1318,
    "action": 1,
    "reward": -2.8
  },
  {
    "phase": "TASK",
    "condition": "Cond4",
    "trial_num": 66,
    "trial_length": 6,
    "click_num": 3,
    "RT": 738,
    "action": 1,
    "reward": -2.1
  },
  {
    "phase": "TASK",
    "condition": "Cond4",
    "trial_num": 66,
    "trial_length": 6,
    "click_num": 4,
    "RT": 1422,
    "action": 0,
    "reward": -2.1
  },
  {
    "phase": "TASK",
    "condition": "Cond4",
    "trial_num": 66,
    "trial_length": 6,
    "click_num": 5,
    "RT": 864,
    "action": 0,
    "reward": -2.1
  },
  {
    "phase": "TASK",
    "condition": "Cond4",
    "trial_num": 66,
    "trial_length": 6,
    "click_num": 6,
    "RT": 631,
    "action": 0,
    "reward": -2.1
  },
  {
    "phase": "TASK",
    "condition": "Cond4",
    "trial_num": 67,
    "trial_length": 9,
    "click_num": 1,
    "RT": 670,
    "action": 1,
    "reward": -2.9
  },
  {
    "phase": "TASK",
    "condition": "Cond4",
    "trial_num": 67,
    "trial_length": 9,
    "click_num": 2,
    "RT": 905,
    "action": 1,
    "reward": -3.6
  },
  {
    "phase": "TASK",
    "condition": "Cond4",
    "trial_num": 67,
    "trial_length": 9,
    "click_num": 3,
    "RT": 904,
    "action": 0,
    "reward": -2.9
  },
  {
    "phase": "TASK",
    "condition": "Cond4",
    "trial_num": 67,
    "trial_length": 9,
    "click_num": 4,
    "RT": 819,
    "action": 1,
    "reward": -3.4
  },
  {
    "phase": "TASK",
    "condition": "Cond4",
    "trial_num": 67,
    "trial_length": 9,
    "click_num": 5,
    "RT": 2054,
    "action": 1,
    "reward": -2.4
  },
  {
    "phase": "TASK",
    "condition": "Cond4",
    "trial_num": 67,
    "trial_length": 9,
    "click_num": 6,
    "RT": 895,
    "action": 1,
    "reward": -3.6
  },
  {
    "phase": "TASK",
    "condition": "Cond4",
    "trial_num": 67,
    "trial_length": 9,
    "click_num": 7,
    "RT": 1218,
    "action": 0,
    "reward": -2.4
  },
  {
    "phase": "TASK",
    "condition": "Cond4",
    "trial_num": 67,
    "trial_length": 9,
    "click_num": 8,
    "RT": 773,
    "action": 0,
    "reward": -2.4
  },
  {
    "phase": "TASK",
    "condition": "Cond4",
    "trial_num": 67,
    "trial_length": 9,
    "click_num": 9,
    "RT": 881,
    "action": 0,
    "reward": -2.4
  },
  {
    "phase": "TASK",
    "condition": "Cond4",
    "trial_num": 68,
    "trial_length": 5,
    "click_num": 1,
    "RT": 934,
    "action": 1,
    "reward": -3
  },
  {
    "phase": "TASK",
    "condition": "Cond4",
    "trial_num": 68,
    "trial_length": 5,
    "click_num": 2,
    "RT": 1468,
    "action": 1,
    "reward": -3.5
  },
  {
    "phase": "TASK",
    "condition": "Cond4",
    "trial_num": 68,
    "trial_length": 5,
    "click_num": 3,
    "RT": 1397,
    "action": 1,
    "reward": -3.4
  },
  {
    "phase": "TASK",
    "condition": "Cond4",
    "trial_num": 68,
    "trial_length": 5,
    "click_num": 4,
    "RT": 790,
    "action": 1,
    "reward": -2.6
  },
  {
    "phase": "TASK",
    "condition": "Cond4",
    "trial_num": 68,
    "trial_length": 5,
    "click_num": 5,
    "RT": 713,
    "action": 1,
    "reward": -3.6
  },
  {
    "phase": "TASK",
    "condition": "Cond4",
    "trial_num": 69,
    "trial_length": 5,
    "click_num": 1,
    "RT": 1036,
    "action": 1,
    "reward": -3.1
  },
  {
    "phase": "TASK",
    "condition": "Cond4",
    "trial_num": 69,
    "trial_length": 5,
    "click_num": 2,
    "RT": 825,
    "action": 1,
    "reward": -2.7
  },
  {
    "phase": "TASK",
    "condition": "Cond4",
    "trial_num": 69,
    "trial_length": 5,
    "click_num": 3,
    "RT": 1559,
    "action": 1,
    "reward": -2.9
  },
  {
    "phase": "TASK",
    "condition": "Cond4",
    "trial_num": 69,
    "trial_length": 5,
    "click_num": 4,
    "RT": 856,
    "action": 1,
    "reward": -3.4
  },
  {
    "phase": "TASK",
    "condition": "Cond4",
    "trial_num": 69,
    "trial_length": 5,
    "click_num": 5,
    "RT": 1152,
    "action": 0,
    "reward": -2.7
  },
  {
    "phase": "TASK",
    "condition": "Cond4",
    "trial_num": 70,
    "trial_length": 9,
    "click_num": 1,
    "RT": 819,
    "action": 1,
    "reward": -3
  },
  {
    "phase": "TASK",
    "condition": "Cond4",
    "trial_num": 70,
    "trial_length": 9,
    "click_num": 2,
    "RT": 902,
    "action": 1,
    "reward": -2.7
  },
  {
    "phase": "TASK",
    "condition": "Cond4",
    "trial_num": 70,
    "trial_length": 9,
    "click_num": 3,
    "RT": 1024,
    "action": 1,
    "reward": -3.2
  },
  {
    "phase": "TASK",
    "condition": "Cond4",
    "trial_num": 70,
    "trial_length": 9,
    "click_num": 4,
    "RT": 1649,
    "action": 1,
    "reward": -4
  },
  {
    "phase": "TASK",
    "condition": "Cond4",
    "trial_num": 70,
    "trial_length": 9,
    "click_num": 5,
    "RT": 949,
    "action": 1,
    "reward": -2.7
  },
  {
    "phase": "TASK",
    "condition": "Cond4",
    "trial_num": 70,
    "trial_length": 9,
    "click_num": 6,
    "RT": 953,
    "action": 1,
    "reward": -3.1
  },
  {
    "phase": "TASK",
    "condition": "Cond4",
    "trial_num": 70,
    "trial_length": 9,
    "click_num": 7,
    "RT": 1105,
    "action": 1,
    "reward": -4
  },
  {
    "phase": "TASK",
    "condition": "Cond4",
    "trial_num": 70,
    "trial_length": 9,
    "click_num": 8,
    "RT": 1006,
    "action": 1,
    "reward": -1.7
  },
  {
    "phase": "TASK",
    "condition": "Cond4",
    "trial_num": 70,
    "trial_length": 9,
    "click_num": 9,
    "RT": 1323,
    "action": 0,
    "reward": -1.7
  },
  {
    "phase": "TASK",
    "condition": "Cond4",
    "trial_num": 71,
    "trial_length": 7,
    "click_num": 1,
    "RT": 1092,
    "action": 1,
    "reward": -2.7
  },
  {
    "phase": "TASK",
    "condition": "Cond4",
    "trial_num": 71,
    "trial_length": 7,
    "click_num": 2,
    "RT": 1562,
    "action": 1,
    "reward": -3.4
  },
  {
    "phase": "TASK",
    "condition": "Cond4",
    "trial_num": 71,
    "trial_length": 7,
    "click_num": 3,
    "RT": 1454,
    "action": 1,
    "reward": -3.2
  },
  {
    "phase": "TASK",
    "condition": "Cond4",
    "trial_num": 71,
    "trial_length": 7,
    "click_num": 4,
    "RT": 751,
    "action": 1,
    "reward": -2.2
  },
  {
    "phase": "TASK",
    "condition": "Cond4",
    "trial_num": 71,
    "trial_length": 7,
    "click_num": 5,
    "RT": 747,
    "action": 1,
    "reward": -3.2
  },
  {
    "phase": "TASK",
    "condition": "Cond4",
    "trial_num": 71,
    "trial_length": 7,
    "click_num": 6,
    "RT": 1176,
    "action": 0,
    "reward": -2.2
  },
  {
    "phase": "TASK",
    "condition": "Cond4",
    "trial_num": 71,
    "trial_length": 7,
    "click_num": 7,
    "RT": 646,
    "action": 0,
    "reward": -2.2
  },
  {
    "phase": "TASK",
    "condition": "Cond4",
    "trial_num": 72,
    "trial_length": 7,
    "click_num": 1,
    "RT": 879,
    "action": 1,
    "reward": -2.3
  },
  {
    "phase": "TASK",
    "condition": "Cond4",
    "trial_num": 72,
    "trial_length": 7,
    "click_num": 2,
    "RT": 1495,
    "action": 0,
    "reward": -2.3
  },
  {
    "phase": "TASK",
    "condition": "Cond4",
    "trial_num": 72,
    "trial_length": 7,
    "click_num": 3,
    "RT": 1216,
    "action": 1,
    "reward": -2.7
  },
  {
    "phase": "TASK",
    "condition": "Cond4",
    "trial_num": 72,
    "trial_length": 7,
    "click_num": 4,
    "RT": 711,
    "action": 0,
    "reward": -2.3
  },
  {
    "phase": "TASK",
    "condition": "Cond4",
    "trial_num": 72,
    "trial_length": 7,
    "click_num": 5,
    "RT": 731,
    "action": 0,
    "reward": -2.3
  },
  {
    "phase": "TASK",
    "condition": "Cond4",
    "trial_num": 72,
    "trial_length": 7,
    "click_num": 6,
    "RT": 701,
    "action": 1,
    "reward": -2.9
  },
  {
    "phase": "TASK",
    "condition": "Cond4",
    "trial_num": 72,
    "trial_length": 7,
    "click_num": 7,
    "RT": 863,
    "action": 0,
    "reward": -2.3
  },
  {
    "phase": "TASK",
    "condition": "Cond4",
    "trial_num": 73,
    "trial_length": 9,
    "click_num": 1,
    "RT": 723,
    "action": 1,
    "reward": -3
  },
  {
    "phase": "TASK",
    "condition": "Cond4",
    "trial_num": 73,
    "trial_length": 9,
    "click_num": 2,
    "RT": 1306,
    "action": 1,
    "reward": -3.6
  },
  {
    "phase": "TASK",
    "condition": "Cond4",
    "trial_num": 73,
    "trial_length": 9,
    "click_num": 3,
    "RT": 1408,
    "action": 1,
    "reward": -3
  },
  {
    "phase": "TASK",
    "condition": "Cond4",
    "trial_num": 73,
    "trial_length": 9,
    "click_num": 4,
    "RT": 741,
    "action": 1,
    "reward": -2.6
  },
  {
    "phase": "TASK",
    "condition": "Cond4",
    "trial_num": 73,
    "trial_length": 9,
    "click_num": 5,
    "RT": 824,
    "action": 1,
    "reward": -2.5
  },
  {
    "phase": "TASK",
    "condition": "Cond4",
    "trial_num": 73,
    "trial_length": 9,
    "click_num": 6,
    "RT": 761,
    "action": 1,
    "reward": -3.4
  },
  {
    "phase": "TASK",
    "condition": "Cond4",
    "trial_num": 73,
    "trial_length": 9,
    "click_num": 7,
    "RT": 1464,
    "action": 1,
    "reward": -2.3
  },
  {
    "phase": "TASK",
    "condition": "Cond4",
    "trial_num": 73,
    "trial_length": 9,
    "click_num": 8,
    "RT": 711,
    "action": 1,
    "reward": -2.8
  },
  {
    "phase": "TASK",
    "condition": "Cond4",
    "trial_num": 73,
    "trial_length": 9,
    "click_num": 9,
    "RT": 680,
    "action": 1,
    "reward": -3.2
  },
  {
    "phase": "TASK",
    "condition": "Cond4",
    "trial_num": 74,
    "trial_length": 6,
    "click_num": 1,
    "RT": 791,
    "action": 1,
    "reward": -3
  },
  {
    "phase": "TASK",
    "condition": "Cond4",
    "trial_num": 74,
    "trial_length": 6,
    "click_num": 2,
    "RT": 703,
    "action": 1,
    "reward": -2.5
  },
  {
    "phase": "TASK",
    "condition": "Cond4",
    "trial_num": 74,
    "trial_length": 6,
    "click_num": 3,
    "RT": 1456,
    "action": 1,
    "reward": -3.2
  },
  {
    "phase": "TASK",
    "condition": "Cond4",
    "trial_num": 74,
    "trial_length": 6,
    "click_num": 4,
    "RT": 1234,
    "action": 1,
    "reward": -4.2
  },
  {
    "phase": "TASK",
    "condition": "Cond4",
    "trial_num": 74,
    "trial_length": 6,
    "click_num": 5,
    "RT": 750,
    "action": 1,
    "reward": -3
  },
  {
    "phase": "TASK",
    "condition": "Cond4",
    "trial_num": 74,
    "trial_length": 6,
    "click_num": 6,
    "RT": 752,
    "action": 1,
    "reward": -2.7
  },
  {
    "phase": "TASK",
    "condition": "Cond4",
    "trial_num": 75,
    "trial_length": 10,
    "click_num": 1,
    "RT": 747,
    "action": 1,
    "reward": -2.1
  },
  {
    "phase": "TASK",
    "condition": "Cond4",
    "trial_num": 75,
    "trial_length": 10,
    "click_num": 2,
    "RT": 1377,
    "action": 1,
    "reward": -3.4
  },
  {
    "phase": "TASK",
    "condition": "Cond4",
    "trial_num": 75,
    "trial_length": 10,
    "click_num": 3,
    "RT": 766,
    "action": 0,
    "reward": -2.1
  },
  {
    "phase": "TASK",
    "condition": "Cond4",
    "trial_num": 75,
    "trial_length": 10,
    "click_num": 4,
    "RT": 638,
    "action": 0,
    "reward": -2.1
  },
  {
    "phase": "TASK",
    "condition": "Cond4",
    "trial_num": 75,
    "trial_length": 10,
    "click_num": 5,
    "RT": 722,
    "action": 0,
    "reward": -2.1
  },
  {
    "phase": "TASK",
    "condition": "Cond4",
    "trial_num": 75,
    "trial_length": 10,
    "click_num": 6,
    "RT": 688,
    "action": 0,
    "reward": -2.1
  },
  {
    "phase": "TASK",
    "condition": "Cond4",
    "trial_num": 75,
    "trial_length": 10,
    "click_num": 7,
    "RT": 1199,
    "action": 0,
    "reward": -2.1
  },
  {
    "phase": "TASK",
    "condition": "Cond4",
    "trial_num": 75,
    "trial_length": 10,
    "click_num": 8,
    "RT": 928,
    "action": 1,
    "reward": -2.4
  },
  {
    "phase": "TASK",
    "condition": "Cond4",
    "trial_num": 75,
    "trial_length": 10,
    "click_num": 9,
    "RT": 944,
    "action": 0,
    "reward": -2.1
  },
  {
    "phase": "TASK",
    "condition": "Cond4",
    "trial_num": 75,
    "trial_length": 10,
    "click_num": 10,
    "RT": 2272,
    "action": 0,
    "reward": -2.1
  },
  {
    "phase": "TASK",
    "condition": "Cond4",
    "trial_num": 76,
    "trial_length": 10,
    "click_num": 1,
    "RT": 1544,
    "action": 1,
    "reward": -3.7
  },
  {
    "phase": "TASK",
    "condition": "Cond4",
    "trial_num": 76,
    "trial_length": 10,
    "click_num": 2,
    "RT": 1680,
    "action": 1,
    "reward": -3.2
  },
  {
    "phase": "TASK",
    "condition": "Cond4",
    "trial_num": 76,
    "trial_length": 10,
    "click_num": 3,
    "RT": 962,
    "action": 1,
    "reward": -2.3
  },
  {
    "phase": "TASK",
    "condition": "Cond4",
    "trial_num": 76,
    "trial_length": 10,
    "click_num": 4,
    "RT": 1023,
    "action": 1,
    "reward": -3.1
  },
  {
    "phase": "TASK",
    "condition": "Cond4",
    "trial_num": 76,
    "trial_length": 10,
    "click_num": 5,
    "RT": 1800,
    "action": 0,
    "reward": -2.3
  },
  {
    "phase": "TASK",
    "condition": "Cond4",
    "trial_num": 76,
    "trial_length": 10,
    "click_num": 6,
    "RT": 1406,
    "action": 0,
    "reward": -2.3
  },
  {
    "phase": "TASK",
    "condition": "Cond4",
    "trial_num": 76,
    "trial_length": 10,
    "click_num": 7,
    "RT": 684,
    "action": 0,
    "reward": -2.3
  },
  {
    "phase": "TASK",
    "condition": "Cond4",
    "trial_num": 76,
    "trial_length": 10,
    "click_num": 8,
    "RT": 1141,
    "action": 0,
    "reward": -2.3
  },
  {
    "phase": "TASK",
    "condition": "Cond4",
    "trial_num": 76,
    "trial_length": 10,
    "click_num": 9,
    "RT": 2712,
    "action": 0,
    "reward": -2.3
  },
  {
    "phase": "TASK",
    "condition": "Cond4",
    "trial_num": 76,
    "trial_length": 10,
    "click_num": 10,
    "RT": 983,
    "action": 1,
    "reward": -3.5
  },
  {
    "phase": "TASK",
    "condition": "Cond4",
    "trial_num": 77,
    "trial_length": 8,
    "click_num": 1,
    "RT": 1010,
    "action": 1,
    "reward": -2.7
  },
  {
    "phase": "TASK",
    "condition": "Cond4",
    "trial_num": 77,
    "trial_length": 8,
    "click_num": 2,
    "RT": 1500,
    "action": 1,
    "reward": -2.7
  },
  {
    "phase": "TASK",
    "condition": "Cond4",
    "trial_num": 77,
    "trial_length": 8,
    "click_num": 3,
    "RT": 866,
    "action": 0,
    "reward": -2.7
  },
  {
    "phase": "TASK",
    "condition": "Cond4",
    "trial_num": 77,
    "trial_length": 8,
    "click_num": 4,
    "RT": 641,
    "action": 1,
    "reward": -3.5
  },
  {
    "phase": "TASK",
    "condition": "Cond4",
    "trial_num": 77,
    "trial_length": 8,
    "click_num": 5,
    "RT": 630,
    "action": 0,
    "reward": -2.7
  },
  {
    "phase": "TASK",
    "condition": "Cond4",
    "trial_num": 77,
    "trial_length": 8,
    "click_num": 6,
    "RT": 955,
    "action": 1,
    "reward": -3.2
  },
  {
    "phase": "TASK",
    "condition": "Cond4",
    "trial_num": 77,
    "trial_length": 8,
    "click_num": 7,
    "RT": 845,
    "action": 0,
    "reward": -2.7
  },
  {
    "phase": "TASK",
    "condition": "Cond4",
    "trial_num": 77,
    "trial_length": 8,
    "click_num": 8,
    "RT": 2349,
    "action": 0,
    "reward": -2.7
  },
  {
    "phase": "TASK",
    "condition": "Cond4",
    "trial_num": 78,
    "trial_length": 9,
    "click_num": 1,
    "RT": 1049,
    "action": 1,
    "reward": -1.5
  },
  {
    "phase": "TASK",
    "condition": "Cond4",
    "trial_num": 78,
    "trial_length": 9,
    "click_num": 2,
    "RT": 1536,
    "action": 0,
    "reward": -1.5
  },
  {
    "phase": "TASK",
    "condition": "Cond4",
    "trial_num": 78,
    "trial_length": 9,
    "click_num": 3,
    "RT": 1272,
    "action": 0,
    "reward": -1.5
  },
  {
    "phase": "TASK",
    "condition": "Cond4",
    "trial_num": 78,
    "trial_length": 9,
    "click_num": 4,
    "RT": 634,
    "action": 0,
    "reward": -1.5
  },
  {
    "phase": "TASK",
    "condition": "Cond4",
    "trial_num": 78,
    "trial_length": 9,
    "click_num": 5,
    "RT": 622,
    "action": 0,
    "reward": -1.5
  },
  {
    "phase": "TASK",
    "condition": "Cond4",
    "trial_num": 78,
    "trial_length": 9,
    "click_num": 6,
    "RT": 607,
    "action": 0,
    "reward": -1.5
  },
  {
    "phase": "TASK",
    "condition": "Cond4",
    "trial_num": 78,
    "trial_length": 9,
    "click_num": 7,
    "RT": 543,
    "action": 0,
    "reward": -1.5
  },
  {
    "phase": "TASK",
    "condition": "Cond4",
    "trial_num": 78,
    "trial_length": 9,
    "click_num": 8,
    "RT": 1512,
    "action": 0,
    "reward": -1.5
  },
  {
    "phase": "TASK",
    "condition": "Cond4",
    "trial_num": 78,
    "trial_length": 9,
    "click_num": 9,
    "RT": 520,
    "action": 0,
    "reward": -1.5
  },
  {
    "phase": "TASK",
    "condition": "Cond4",
    "trial_num": 79,
    "trial_length": 5,
    "click_num": 1,
    "RT": 1303,
    "action": 1,
    "reward": -2.9
  },
  {
    "phase": "TASK",
    "condition": "Cond4",
    "trial_num": 79,
    "trial_length": 5,
    "click_num": 2,
    "RT": 1001,
    "action": 1,
    "reward": -3.7
  },
  {
    "phase": "TASK",
    "condition": "Cond4",
    "trial_num": 79,
    "trial_length": 5,
    "click_num": 3,
    "RT": 1033,
    "action": 1,
    "reward": -3.2
  },
  {
    "phase": "TASK",
    "condition": "Cond4",
    "trial_num": 79,
    "trial_length": 5,
    "click_num": 4,
    "RT": 925,
    "action": 1,
    "reward": -3.1
  },
  {
    "phase": "TASK",
    "condition": "Cond4",
    "trial_num": 79,
    "trial_length": 5,
    "click_num": 5,
    "RT": 1947,
    "action": 1,
    "reward": -2.9
  },
  {
    "phase": "TASK",
    "condition": "Cond4",
    "trial_num": 80,
    "trial_length": 10,
    "click_num": 1,
    "RT": 956,
    "action": 1,
    "reward": -3
  },
  {
    "phase": "TASK",
    "condition": "Cond4",
    "trial_num": 80,
    "trial_length": 10,
    "click_num": 2,
    "RT": 1201,
    "action": 1,
    "reward": -2.6
  },
