[
  {
    "phase": "TASK",
    "condition": "Cond4",
    "trial_num": 1,
    "trial_length": 5,
    "click_num": 1,
    "RT": 2857,
    "action": 1,
    "reward": -2.7
  },
  {
    "phase": "TASK",
    "condition": "Cond4",
    "trial_num": 1,
    "trial_length": 5,
    "click_num": 2,
    "RT": 2918,
    "action": 1,
    "reward": -3.4
  },
  {
    "phase": "TASK",
    "condition": "Cond4",
    "trial_num": 1,
    "trial_length": 5,
    "click_num": 3,
    "RT": 2719,
    "action": 0,
    "reward": -2.7
  },
  {
    "phase": "TASK",
    "condition": "Cond4",
    "trial_num": 1,
    "trial_length": 5,
    "click_num": 4,
    "RT": 3314,
    "action": 0,
    "reward": -2.7
  },
  {
    "phase": "TASK",
    "condition": "Cond4",
    "trial_num": 1,
    "trial_length": 5,
    "click_num": 5,
    "RT": 1246,
    "action": 1,
    "reward": -3.8
  },
  {
    "phase": "TASK",
    "condition": "Cond4",
    "trial_num": 2,
    "trial_length": 10,
    "click_num": 1,
    "RT": 2045,
    "action": 1,
    "reward": -2.4
  },
  {
    "phase": "TASK",
    "condition": "Cond4",
    "trial_num": 2,
    "trial_length": 10,
    "click_num": 2,
    "RT": 1809,
    "action": 0,
    "reward": -2.4
  },
  {
    "phase": "TASK",
    "condition": "Cond4",
    "trial_num": 2,
    "trial_length": 10,
    "click_num": 3,
    "RT": 1112,
    "action": 1,
    "reward": -3
  },
  {
    "phase": "TASK",
    "condition": "Cond4",
    "trial_num": 2,
    "trial_length": 10,
    "click_num": 4,
    "RT": 1616,
    "action": 0,
    "reward": -2.4
  },
  {
    "phase": "TASK",
    "condition": "Cond4",
    "trial_num": 2,
    "trial_length": 10,
    "click_num": 5,
    "RT": 1784,
    "action": 0,
    "reward": -2.4
  },
  {
    "phase": "TASK",
    "condition": "Cond4",
    "trial_num": 2,
    "trial_length": 10,
    "click_num": 6,
    "RT": 1264,
    "action": 1,
    "reward": -2.6
  },
  {
    "phase": "TASK",
    "condition": "Cond4",
    "trial_num": 2,
    "trial_length": 10,
    "click_num": 7,
    "RT": 1384,
    "action": 0,
    "reward": -2.4
  },
  {
    "phase": "TASK",
    "condition": "Cond4",
    "trial_num": 2,
    "trial_length": 10,
    "click_num": 8,
    "RT": 1055,
    "action": 0,
    "reward": -2.4
  },
  {
    "phase": "TASK",
    "condition": "Cond4",
    "trial_num": 2,
    "trial_length": 10,
    "click_num": 9,
    "RT": 1056,
    "action": 0,
    "reward": -2.4
  },
  {
    "phase": "TASK",
    "condition": "Cond4",
    "trial_num": 2,
    "trial_length": 10,
    "click_num": 10,
    "RT": 1627,
    "action": 1,
    "reward": -2.9
  },
  {
    "phase": "TASK",
    "condition": "Cond4",
    "trial_num": 3,
    "trial_length": 6,
    "click_num": 1,
    "RT": 2541,
    "action": 1,
    "reward": -2.4
  },
  {
    "phase": "TASK",
    "condition": "Cond4",
    "trial_num": 3,
    "trial_length": 6,
    "click_num": 2,
    "RT": 2025,
    "action": 0,
    "reward": -2.4
  },
  {
    "phase": "TASK",
    "condition": "Cond4",
    "trial_num": 3,
    "trial_length": 6,
    "click_num": 3,
    "RT": 1383,
    "action": 0,
    "reward": -2.4
  },
  {
    "phase": "TASK",
    "condition": "Cond4",
    "trial_num": 3,
    "trial_length": 6,
    "click_num": 4,
    "RT": 1448,
    "action": 0,
    "reward": -2.4
  },
  {
    "phase": "TASK",
    "condition": "Cond4",
    "trial_num": 3,
    "trial_length": 6,
    "click_num": 5,
    "RT": 1448,
    "action": 0,
    "reward": -2.4
  },
  {
    "phase": "TASK",
    "condition": "Cond4",
    "trial_num": 3,
    "trial_length": 6,
    "click_num": 6,
    "RT": 1176,
    "action": 1,
    "reward": -2.8
  },
  {
    "phase": "TASK",
    "condition": "Cond4",
    "trial_num": 4,
    "trial_length": 9,
    "click_num": 1,
    "RT": 1669,
    "action": 1,
    "reward": -3.2
  },
  {
    "phase": "TASK",
    "condition": "Cond4",
    "trial_num": 4,
    "trial_length": 9,
    "click_num": 2,
    "RT": 2418,
    "action": 1,
    "reward": -2.9
  },
  {
    "phase": "TASK",
    "condition": "Cond4",
    "trial_num": 4,
    "trial_length": 9,
    "click_num": 3,
    "RT": 2543,
    "action": 1,
    "reward": -2.9
  },
  {
    "phase": "TASK",
    "condition": "Cond4",
    "trial_num": 4,
    "trial_length": 9,
    "click_num": 4,
    "RT": 1691,
    "action": 1,
    "reward": -2.5
  },
  {
    "phase": "TASK",
    "condition": "Cond4",
    "trial_num": 4,
    "trial_length": 9,
    "click_num": 5,
    "RT": 1518,
    "action": 1,
    "reward": -3.1
  },
  {
    "phase": "TASK",
    "condition": "Cond4",
    "trial_num": 4,
    "trial_length": 9,
    "click_num": 6,
    "RT": 1655,
    "action": 0,
    "reward": -2.5
  },
  {
    "phase": "TASK",
    "condition": "Cond4",
    "trial_num": 4,
    "trial_length": 9,
    "click_num": 7,
    "RT": 1159,
    "action": 0,
    "reward": -2.5
  },
  {
    "phase": "TASK",
    "condition": "Cond4",
    "trial_num": 4,
    "trial_length": 9,
    "click_num": 8,
    "RT": 1104,
    "action": 0,
    "reward": -2.5
  },
  {
    "phase": "TASK",
    "condition": "Cond4",
    "trial_num": 4,
    "trial_length": 9,
    "click_num": 9,
    "RT": 1258,
    "action": 1,
    "reward": -2.6
  },
  {
    "phase": "TASK",
    "condition": "Cond4",
    "trial_num": 5,
    "trial_length": 7,
    "click_num": 1,
    "RT": 1279,
    "action": 1,
    "reward": -2.2
  },
  {
    "phase": "TASK",
    "condition": "Cond4",
    "trial_num": 5,
    "trial_length": 7,
    "click_num": 2,
    "RT": 2050,
    "action": 1,
    "reward": -2.8
  },
  {
    "phase": "TASK",
    "condition": "Cond4",
    "trial_num": 5,
    "trial_length": 7,
    "click_num": 3,
    "RT": 1303,
    "action": 0,
    "reward": -2.2
  },
  {
    "phase": "TASK",
    "condition": "Cond4",
    "trial_num": 5,
    "trial_length": 7,
    "click_num": 4,
    "RT": 1095,
    "action": 0,
    "reward": -2.2
  },
  {
    "phase": "TASK",
    "condition": "Cond4",
    "trial_num": 5,
    "trial_length": 7,
    "click_num": 5,
    "RT": 1080,
    "action": 0,
    "reward": -2.2
  },
  {
    "phase": "TASK",
    "condition": "Cond4",
    "trial_num": 5,
    "trial_length": 7,
    "click_num": 6,
    "RT": 1080,
    "action": 0,
    "reward": -2.2
  },
  {
    "phase": "TASK",
    "condition": "Cond4",
    "trial_num": 5,
    "trial_length": 7,
    "click_num": 7,
    "RT": 967,
    "action": 1,
    "reward": -2.2
  },
  {
    "phase": "TASK",
    "condition": "Cond4",
    "trial_num": 6,
    "trial_length": 7,
    "click_num": 1,
    "RT": 1118,
    "action": 1,
    "reward": -3.1
  },
  {
    "phase": "TASK",
    "condition": "Cond4",
    "trial_num": 6,
    "trial_length": 7,
    "click_num": 2,
    "RT": 1513,
    "action": 1,
    "reward": -2.1
  },
  {
    "phase": "TASK",
    "condition": "Cond4",
    "trial_num": 6,
    "trial_length": 7,
    "click_num": 3,
    "RT": 2352,
    "action": 1,
    "reward": -3.4
  },
  {
    "phase": "TASK",
    "condition": "Cond4",
    "trial_num": 6,
    "trial_length": 7,
    "click_num": 4,
    "RT": 1120,
    "action": 0,
    "reward": -2.1
  },
  {
    "phase": "TASK",
    "condition": "Cond4",
    "trial_num": 6,
    "trial_length": 7,
    "click_num": 5,
    "RT": 1016,
    "action": 0,
    "reward": -2.1
  },
  {
    "phase": "TASK",
    "condition": "Cond4",
    "trial_num": 6,
    "trial_length": 7,
    "click_num": 6,
    "RT": 967,
    "action": 0,
    "reward": -2.1
  },
  {
    "phase": "TASK",
    "condition": "Cond4",
    "trial_num": 6,
    "trial_length": 7,
    "click_num": 7,
    "RT": 1092,
    "action": 1,
    "reward": -2.8
  },
  {
    "phase": "TASK",
    "condition": "Cond4",
    "trial_num": 7,
    "trial_length": 5,
    "click_num": 1,
    "RT": 1015,
    "action": 1,
    "reward": -2.4
  },
  {
    "phase": "TASK",
    "condition": "Cond4",
    "trial_num": 7,
    "trial_length": 5,
    "click_num": 2,
    "RT": 1952,
    "action": 1,
    "reward": -1.7
  },
  {
    "phase": "TASK",
    "condition": "Cond4",
    "trial_num": 7,
    "trial_length": 5,
    "click_num": 3,
    "RT": 2282,
    "action": 0,
    "reward": -1.7
  },
  {
    "phase": "TASK",
    "condition": "Cond4",
    "trial_num": 7,
    "trial_length": 5,
    "click_num": 4,
    "RT": 861,
    "action": 0,
    "reward": -1.7
  },
  {
    "phase": "TASK",
    "condition": "Cond4",
    "trial_num": 7,
    "trial_length": 5,
    "click_num": 5,
    "RT": 808,
    "action": 0,
    "reward": -1.7
  },
  {
    "phase": "TASK",
    "condition": "Cond4",
    "trial_num": 8,
    "trial_length": 9,
    "click_num": 1,
    "RT": 1121,
    "action": 1,
    "reward": -3.1
  },
  {
    "phase": "TASK",
    "condition": "Cond4",
    "trial_num": 8,
    "trial_length": 9,
    "click_num": 2,
    "RT": 2231,
    "action": 1,
    "reward": -2.8
  },
  {
    "phase": "TASK",
    "condition": "Cond4",
    "trial_num": 8,
    "trial_length": 9,
    "click_num": 3,
    "RT": 1271,
    "action": 1,
    "reward": -2.9
  },
  {
    "phase": "TASK",
    "condition": "Cond4",
    "trial_num": 8,
    "trial_length": 9,
    "click_num": 4,
    "RT": 1224,
    "action": 1,
    "reward": -3
  },
  {
    "phase": "TASK",
    "condition": "Cond4",
    "trial_num": 8,
    "trial_length": 9,
    "click_num": 5,
    "RT": 1368,
    "action": 0,
    "reward": -2.8
  },
  {
    "phase": "TASK",
    "condition": "Cond4",
    "trial_num": 8,
    "trial_length": 9,
    "click_num": 6,
    "RT": 1249,
    "action": 0,
    "reward": -2.8
  },
  {
    "phase": "TASK",
    "condition": "Cond4",
    "trial_num": 8,
    "trial_length": 9,
    "click_num": 7,
    "RT": 913,
    "action": 0,
    "reward": -2.8
  },
  {
    "phase": "TASK",
    "condition": "Cond4",
    "trial_num": 8,
    "trial_length": 9,
    "click_num": 8,
    "RT": 839,
    "action": 1,
    "reward": -3.5
  },
  {
    "phase": "TASK",
    "condition": "Cond4",
    "trial_num": 8,
    "trial_length": 9,
    "click_num": 9,
    "RT": 1055,
    "action": 1,
    "reward": -2.3
  },
  {
    "phase": "TASK",
    "condition": "Cond4",
    "trial_num": 9,
    "trial_length": 9,
    "click_num": 1,
    "RT": 1173,
    "action": 1,
    "reward": -3.6
  },
  {
    "phase": "TASK",
    "condition": "Cond4",
    "trial_num": 9,
    "trial_length": 9,
    "click_num": 2,
    "RT": 1529,
    "action": 1,
    "reward": -2.5
  },
  {
    "phase": "TASK",
    "condition": "Cond4",
    "trial_num": 9,
    "trial_length": 9,
    "click_num": 3,
    "RT": 1283,
    "action": 0,
    "reward": -2.5
  },
  {
    "phase": "TASK",
    "condition": "Cond4",
    "trial_num": 9,
    "trial_length": 9,
    "click_num": 4,
    "RT": 853,
    "action": 0,
    "reward": -2.5
  },
  {
    "phase": "TASK",
    "condition": "Cond4",
    "trial_num": 9,
    "trial_length": 9,
    "click_num": 5,
    "RT": 929,
    "action": 0,
    "reward": -2.5
  },
  {
    "phase": "TASK",
    "condition": "Cond4",
    "trial_num": 9,
    "trial_length": 9,
    "click_num": 6,
    "RT": 913,
    "action": 0,
    "reward": -2.5
  },
  {
    "phase": "TASK",
    "condition": "Cond4",
    "trial_num": 9,
    "trial_length": 9,
    "click_num": 7,
    "RT": 1126,
    "action": 0,
    "reward": -2.5
  },
  {
    "phase": "TASK",
    "condition": "Cond4",
    "trial_num": 9,
    "trial_length": 9,
    "click_num": 8,
    "RT": 1067,
    "action": 1,
    "reward": -2.7
  },
  {
    "phase": "TASK",
    "condition": "Cond4",
    "trial_num": 9,
    "trial_length": 9,
    "click_num": 9,
    "RT": 1197,
    "action": 0,
    "reward": -2.5
  },
  {
    "phase": "TASK",
    "condition": "Cond4",
    "trial_num": 10,
    "trial_length": 10,
    "click_num": 1,
    "RT": 1086,
    "action": 1,
    "reward": -3.7
  },
  {
    "phase": "TASK",
    "condition": "Cond4",
    "trial_num": 10,
    "trial_length": 10,
    "click_num": 2,
    "RT": 1312,
    "action": 0,
    "reward": -3.7
  },
  {
    "phase": "TASK",
    "condition": "Cond4",
    "trial_num": 10,
    "trial_length": 10,
    "click_num": 3,
    "RT": 1097,
    "action": 1,
    "reward": -3.7
  },
  {
    "phase": "TASK",
    "condition": "Cond4",
    "trial_num": 10,
    "trial_length": 10,
    "click_num": 4,
    "RT": 1207,
    "action": 1,
    "reward": -2.5
  },
  {
    "phase": "TASK",
    "condition": "Cond4",
    "trial_num": 10,
    "trial_length": 10,
    "click_num": 5,
    "RT": 1272,
    "action": 1,
    "reward": -1.9
  },
  {
    "phase": "TASK",
    "condition": "Cond4",
    "trial_num": 10,
    "trial_length": 10,
    "click_num": 6,
    "RT": 1298,
    "action": 1,
    "reward": -2.7
  },
  {
    "phase": "TASK",
    "condition": "Cond4",
    "trial_num": 10,
    "trial_length": 10,
    "click_num": 7,
    "RT": 1463,
    "action": 0,
    "reward": -1.9
  },
  {
    "phase": "TASK",
    "condition": "Cond4",
    "trial_num": 10,
    "trial_length": 10,
    "click_num": 8,
    "RT": 807,
    "action": 0,
    "reward": -1.9
  },
  {
    "phase": "TASK",
    "condition": "Cond4",
    "trial_num": 10,
    "trial_length": 10,
    "click_num": 9,
    "RT": 1584,
    "action": 0,
    "reward": -1.9
  },
  {
    "phase": "TASK",
    "condition": "Cond4",
    "trial_num": 10,
    "trial_length": 10,
    "click_num": 10,
    "RT": 867,
    "action": 1,
    "reward": -3.5
  },
  {
    "phase": "TASK",
    "condition": "Cond4",
    "trial_num": 11,
    "trial_length": 5,
    "click_num": 1,
    "RT": 918,
    "action": 1,
    "reward": -2.6
  },
  {
    "phase": "TASK",
    "condition": "Cond4",
    "trial_num": 11,
    "trial_length": 5,
    "click_num": 2,
    "RT": 1673,
    "action": 1,
    "reward": -3.2
  },
  {
    "phase": "TASK",
    "condition": "Cond4",
    "trial_num": 11,
    "trial_length": 5,
    "click_num": 3,
    "RT": 1352,
    "action": 1,
    "reward": -3
  },
  {
    "phase": "TASK",
    "condition": "Cond4",
    "trial_num": 11,
    "trial_length": 5,
    "click_num": 4,
    "RT": 1343,
    "action": 0,
    "reward": -2.6
  },
  {
    "phase": "TASK",
    "condition": "Cond4",
    "trial_num": 11,
    "trial_length": 5,
    "click_num": 5,
    "RT": 929,
    "action": 0,
    "reward": -2.6
  },
  {
    "phase": "TASK",
    "condition": "Cond4",
    "trial_num": 12,
    "trial_length": 8,
    "click_num": 1,
    "RT": 1111,
    "action": 1,
    "reward": -2.6
  },
  {
    "phase": "TASK",
    "condition": "Cond4",
    "trial_num": 12,
    "trial_length": 8,
    "click_num": 2,
    "RT": 1656,
    "action": 1,
    "reward": -4.1
  },
  {
    "phase": "TASK",
    "condition": "Cond4",
    "trial_num": 12,
    "trial_length": 8,
    "click_num": 3,
    "RT": 1203,
    "action": 1,
    "reward": -2.5
  },
  {
    "phase": "TASK",
    "condition": "Cond4",
    "trial_num": 12,
    "trial_length": 8,
    "click_num": 4,
    "RT": 2390,
    "action": 1,
    "reward": -3.2
  },
  {
    "phase": "TASK",
    "condition": "Cond4",
    "trial_num": 12,
    "trial_length": 8,
    "click_num": 5,
    "RT": 1191,
    "action": 1,
    "reward": -2.9
  },
  {
    "phase": "TASK",
    "condition": "Cond4",
    "trial_num": 12,
    "trial_length": 8,
    "click_num": 6,
    "RT": 1203,
    "action": 0,
    "reward": -2.5
  },
  {
    "phase": "TASK",
    "condition": "Cond4",
    "trial_num": 12,
    "trial_length": 8,
    "click_num": 7,
    "RT": 949,
    "action": 0,
    "reward": -2.5
  },
  {
    "phase": "TASK",
    "condition": "Cond4",
    "trial_num": 12,
    "trial_length": 8,
    "click_num": 8,
    "RT": 800,
    "action": 0,
    "reward": -2.5
  },
  {
    "phase": "TASK",
    "condition": "Cond4",
    "trial_num": 13,
    "trial_length": 6,
    "click_num": 1,
    "RT": 1100,
    "action": 1,
    "reward": -2.7
  },
  {
    "phase": "TASK",
    "condition": "Cond4",
    "trial_num": 13,
    "trial_length": 6,
    "click_num": 2,
    "RT": 1544,
    "action": 1,
    "reward": -3.3
  },
  {
    "phase": "TASK",
    "condition": "Cond4",
    "trial_num": 13,
    "trial_length": 6,
    "click_num": 3,
    "RT": 1065,
    "action": 1,
    "reward": -3.1
  },
  {
    "phase": "TASK",
    "condition": "Cond4",
    "trial_num": 13,
    "trial_length": 6,
    "click_num": 4,
    "RT": 1848,
    "action": 1,
    "reward": -4
  },
  {
    "phase": "TASK",
    "condition": "Cond4",
    "trial_num": 13,
    "trial_length": 6,
    "click_num": 5,
    "RT": 1103,
    "action": 0,
    "reward": -2.7
  },
  {
    "phase": "TASK",
    "condition": "Cond4",
    "trial_num": 13,
    "trial_length": 6,
    "click_num": 6,
    "RT": 883,
    "action": 0,
    "reward": -2.7
  },
  {
    "phase": "TASK",
    "condition": "Cond4",
    "trial_num": 14,
    "trial_length": 6,
    "click_num": 1,
    "RT": 1126,
    "action": 1,
    "reward": -2.4
  },
  {
    "phase": "TASK",
    "condition": "Cond4",
    "trial_num": 14,
    "trial_length": 6,
    "click_num": 2,
    "RT": 2282,
    "action": 1,
    "reward": -3.6
  },
  {
    "phase": "TASK",
    "condition": "Cond4",
    "trial_num": 14,
    "trial_length": 6,
    "click_num": 3,
    "RT": 998,
    "action": 0,
    "reward": -2.4
  },
  {
    "phase": "TASK",
    "condition": "Cond4",
    "trial_num": 14,
    "trial_length": 6,
    "click_num": 4,
    "RT": 886,
    "action": 0,
    "reward": -2.4
  },
  {
    "phase": "TASK",
    "condition": "Cond4",
    "trial_num": 14,
    "trial_length": 6,
    "click_num": 5,
    "RT": 722,
    "action": 0,
    "reward": -2.4
  },
  {
    "phase": "TASK",
    "condition": "Cond4",
    "trial_num": 14,
    "trial_length": 6,
    "click_num": 6,
    "RT": 888,
    "action": 0,
    "reward": -2.4
  },
  {
    "phase": "TASK",
    "condition": "Cond4",
    "trial_num": 15,
    "trial_length": 5,
    "click_num": 1,
    "RT": 1302,
    "action": 1,
    "reward": -2.7
  },
  {
    "phase": "TASK",
    "condition": "Cond4",
    "trial_num": 15,
    "trial_length": 5,
    "click_num": 2,
    "RT": 2036,
    "action": 1,
    "reward": -2.4
  },
  {
    "phase": "TASK",
    "condition": "Cond4",
    "trial_num": 15,
    "trial_length": 5,
    "click_num": 3,
    "RT": 1629,
    "action": 0,
    "reward": -2.4
  },
  {
    "phase": "TASK",
    "condition": "Cond4",
    "trial_num": 15,
    "trial_length": 5,
    "click_num": 4,
    "RT": 979,
    "action": 0,
    "reward": -2.4
  },
  {
    "phase": "TASK",
    "condition": "Cond4",
    "trial_num": 15,
    "trial_length": 5,
    "click_num": 5,
    "RT": 789,
    "action": 0,
    "reward": -2.4
  },
  {
    "phase": "TASK",
    "condition": "Cond4",
    "trial_num": 16,
    "trial_length": 6,
    "click_num": 1,
    "RT": 1050,
    "action": 1,
    "reward": -3
  },
  {
    "phase": "TASK",
    "condition": "Cond4",
    "trial_num": 16,
    "trial_length": 6,
    "click_num": 2,
    "RT": 1599,
    "action": 1,
    "reward": -2.4
  },
  {
    "phase": "TASK",
    "condition": "Cond4",
    "trial_num": 16,
    "trial_length": 6,
    "click_num": 3,
    "RT": 1867,
    "action": 1,
    "reward": -2.9
  },
  {
    "phase": "TASK",
    "condition": "Cond4",
    "trial_num": 16,
    "trial_length": 6,
    "click_num": 4,
    "RT": 1229,
    "action": 0,
    "reward": -2.4
  },
  {
    "phase": "TASK",
    "condition": "Cond4",
    "trial_num": 16,
    "trial_length": 6,
    "click_num": 5,
    "RT": 792,
    "action": 0,
    "reward": -2.4
  },
  {
    "phase": "TASK",
    "condition": "Cond4",
    "trial_num": 16,
    "trial_length": 6,
    "click_num": 6,
    "RT": 1216,
    "action": 0,
    "reward": -2.4
  },
  {
    "phase": "TASK",
    "condition": "Cond4",
    "trial_num": 17,
    "trial_length": 6,
    "click_num": 1,
    "RT": 923,
    "action": 1,
    "reward": -2.6
  },
  {
    "phase": "TASK",
    "condition": "Cond4",
    "trial_num": 17,
    "trial_length": 6,
    "click_num": 2,
    "RT": 1570,
    "action": 1,
    "reward": -2.8
  },
  {
    "phase": "TASK",
    "condition": "Cond4",
    "trial_num": 17,
    "trial_length": 6,
    "click_num": 3,
    "RT": 1255,
    "action": 0,
    "reward": -2.6
  },
  {
    "phase": "TASK",
    "condition": "Cond4",
    "trial_num": 17,
    "trial_length": 6,
    "click_num": 4,
    "RT": 721,
    "action": 0,
    "reward": -2.6
  },
  {
    "phase": "TASK",
    "condition": "Cond4",
    "trial_num": 17,
    "trial_length": 6,
    "click_num": 5,
    "RT": 695,
    "action": 0,
    "reward": -2.6
  },
  {
    "phase": "TASK",
    "condition": "Cond4",
    "trial_num": 17,
    "trial_length": 6,
    "click_num": 6,
    "RT": 680,
    "action": 1,
    "reward": -3.1
  },
  {
    "phase": "TASK",
    "condition": "Cond4",
    "trial_num": 18,
    "trial_length": 5,
    "click_num": 1,
    "RT": 1134,
    "action": 1,
    "reward": -3.6
  },
  {
    "phase": "TASK",
    "condition": "Cond4",
    "trial_num": 18,
    "trial_length": 5,
    "click_num": 2,
    "RT": 4150,
    "action": 1,
    "reward": -2
  },
  {
    "phase": "TASK",
    "condition": "Cond4",
    "trial_num": 18,
    "trial_length": 5,
    "click_num": 3,
    "RT": 1722,
    "action": 0,
    "reward": -2
  },
  {
    "phase": "TASK",
    "condition": "Cond4",
    "trial_num": 18,
    "trial_length": 5,
    "click_num": 4,
    "RT": 696,
    "action": 0,
    "reward": -2
  },
  {
    "phase": "TASK",
    "condition": "Cond4",
    "trial_num": 18,
    "trial_length": 5,
    "click_num": 5,
    "RT": 682,
    "action": 0,
    "reward": -2
  },
  {
    "phase": "TASK",
    "condition": "Cond4",
    "trial_num": 19,
    "trial_length": 6,
    "click_num": 1,
    "RT": 925,
    "action": 1,
    "reward": -3.4
  },
  {
    "phase": "TASK",
    "condition": "Cond4",
    "trial_num": 19,
    "trial_length": 6,
    "click_num": 2,
    "RT": 2199,
    "action": 1,
    "reward": -3.3
  },
  {
    "phase": "TASK",
    "condition": "Cond4",
    "trial_num": 19,
    "trial_length": 6,
    "click_num": 3,
    "RT": 1080,
    "action": 1,
    "reward": -2.9
  },
  {
    "phase": "TASK",
    "condition": "Cond4",
    "trial_num": 19,
    "trial_length": 6,
    "click_num": 4,
    "RT": 1312,
    "action": 1,
    "reward": -3
  },
  {
    "phase": "TASK",
    "condition": "Cond4",
    "trial_num": 19,
    "trial_length": 6,
    "click_num": 5,
    "RT": 1871,
    "action": 1,
    "reward": -2.2
  },
  {
    "phase": "TASK",
    "condition": "Cond4",
    "trial_num": 19,
    "trial_length": 6,
    "click_num": 6,
    "RT": 1146,
    "action": 0,
    "reward": -2.2
  },
  {
    "phase": "TASK",
    "condition": "Cond4",
    "trial_num": 20,
    "trial_length": 8,
    "click_num": 1,
    "RT": 1033,
    "action": 1,
    "reward": -2.9
  },
  {
    "phase": "TASK",
    "condition": "Cond4",
    "trial_num": 20,
    "trial_length": 8,
    "click_num": 2,
    "RT": 1424,
    "action": 1,
    "reward": -3.9
  },
  {
    "phase": "TASK",
    "condition": "Cond4",
    "trial_num": 20,
    "trial_length": 8,
    "click_num": 3,
    "RT": 1182,
    "action": 1,
    "reward": -2.6
  },
  {
    "phase": "TASK",
    "condition": "Cond4",
    "trial_num": 20,
    "trial_length": 8,
    "click_num": 4,
    "RT": 1001,
    "action": 1,
    "reward": -2.4
  },
  {
    "phase": "TASK",
    "condition": "Cond4",
    "trial_num": 20,
    "trial_length": 8,
    "click_num": 5,
    "RT": 958,
    "action": 1,
    "reward": -2.6
  },
  {
    "phase": "TASK",
    "condition": "Cond4",
    "trial_num": 20,
    "trial_length": 8,
    "click_num": 6,
    "RT": 1313,
    "action": 1,
    "reward": -2.7
  },
  {
    "phase": "TASK",
    "condition": "Cond4",
    "trial_num": 20,
    "trial_length": 8,
    "click_num": 7,
    "RT": 944,
    "action": 0,
    "reward": -2.4
  },
  {
    "phase": "TASK",
    "condition": "Cond4",
    "trial_num": 20,
    "trial_length": 8,
    "click_num": 8,
    "RT": 743,
    "action": 0,
    "reward": -2.4
  },
  {
    "phase": "TASK",
    "condition": "Cond4",
    "trial_num": 21,
    "trial_length": 6,
    "click_num": 1,
    "RT": 766,
    "action": 1,
    "reward": -3.8
  },
  {
    "phase": "TASK",
    "condition": "Cond4",
    "trial_num": 21,
    "trial_length": 6,
    "click_num": 2,
    "RT": 1968,
    "action": 1,
    "reward": -3.3
  },
  {
    "phase": "TASK",
    "condition": "Cond4",
    "trial_num": 21,
    "trial_length": 6,
    "click_num": 3,
    "RT": 1179,
    "action": 1,
    "reward": -2.7
  },
  {
    "phase": "TASK",
    "condition": "Cond4",
    "trial_num": 21,
    "trial_length": 6,
    "click_num": 4,
    "RT": 1022,
    "action": 1,
    "reward": -2.8
  },
  {
    "phase": "TASK",
    "condition": "Cond4",
    "trial_num": 21,
    "trial_length": 6,
    "click_num": 5,
    "RT": 1299,
    "action": 1,
    "reward": -3.1
  },
  {
    "phase": "TASK",
    "condition": "Cond4",
    "trial_num": 21,
    "trial_length": 6,
    "click_num": 6,
    "RT": 1364,
    "action": 1,
    "reward": -2.3
  },
  {
    "phase": "TASK",
    "condition": "Cond4",
    "trial_num": 22,
    "trial_length": 8,
    "click_num": 1,
    "RT": 903,
    "action": 1,
    "reward": -3.1
  },
  {
    "phase": "TASK",
    "condition": "Cond4",
    "trial_num": 22,
    "trial_length": 8,
    "click_num": 2,
    "RT": 1304,
    "action": 1,
    "reward": -3.3
  },
  {
    "phase": "TASK",
    "condition": "Cond4",
    "trial_num": 22,
    "trial_length": 8,
    "click_num": 3,
    "RT": 1264,
    "action": 1,
    "reward": -3.2
  },
  {
    "phase": "TASK",
    "condition": "Cond4",
    "trial_num": 22,
    "trial_length": 8,
    "click_num": 4,
    "RT": 1170,
    "action": 1,
    "reward": -2.7
  },
  {
    "phase": "TASK",
    "condition": "Cond4",
    "trial_num": 22,
    "trial_length": 8,
    "click_num": 5,
    "RT": 1990,
    "action": 1,
    "reward": -2.4
  },
  {
    "phase": "TASK",
    "condition": "Cond4",
    "trial_num": 22,
    "trial_length": 8,
    "click_num": 6,
    "RT": 1243,
    "action": 1,
    "reward": -4.4
  },
  {
    "phase": "TASK",
    "condition": "Cond4",
    "trial_num": 22,
    "trial_length": 8,
    "click_num": 7,
    "RT": 2030,
    "action": 0,
    "reward": -2.4
  },
  {
    "phase": "TASK",
    "condition": "Cond4",
    "trial_num": 22,
    "trial_length": 8,
    "click_num": 8,
    "RT": 743,
    "action": 0,
    "reward": -2.4
  },
  {
    "phase": "TASK",
    "condition": "Cond4",
    "trial_num": 23,
    "trial_length": 5,
    "click_num": 1,
    "RT": 1238,
    "action": 1,
    "reward": -3.3
  },
  {
    "phase": "TASK",
    "condition": "Cond4",
    "trial_num": 23,
    "trial_length": 5,
    "click_num": 2,
    "RT": 1192,
    "action": 1,
    "reward": -3.1
  },
  {
    "phase": "TASK",
    "condition": "Cond4",
    "trial_num": 23,
    "trial_length": 5,
    "click_num": 3,
    "RT": 1431,
    "action": 1,
    "reward": -2.6
  },
  {
    "phase": "TASK",
    "condition": "Cond4",
    "trial_num": 23,
    "trial_length": 5,
    "click_num": 4,
    "RT": 1456,
    "action": 0,
    "reward": -2.6
  },
  {
    "phase": "TASK",
    "condition": "Cond4",
    "trial_num": 23,
    "trial_length": 5,
    "click_num": 5,
    "RT": 881,
    "action": 0,
    "reward": -2.6
  },
  {
    "phase": "TASK",
    "condition": "Cond4",
    "trial_num": 24,
    "trial_length": 10,
    "click_num": 1,
    "RT": 2445,
    "action": 1,
    "reward": -3.5
  },
  {
    "phase": "TASK",
    "condition": "Cond4",
    "trial_num": 24,
    "trial_length": 10,
    "click_num": 2,
    "RT": 1562,
    "action": 1,
    "reward": -2.4
  },
  {
    "phase": "TASK",
    "condition": "Cond4",
    "trial_num": 24,
    "trial_length": 10,
    "click_num": 3,
    "RT": 1139,
    "action": 1,
    "reward": -3.8
  },
  {
    "phase": "TASK",
    "condition": "Cond4",
    "trial_num": 24,
    "trial_length": 10,
    "click_num": 4,
    "RT": 1142,
    "action": 1,
    "reward": -3.8
  },
  {
    "phase": "TASK",
    "condition": "Cond4",
    "trial_num": 24,
    "trial_length": 10,
    "click_num": 5,
    "RT": 1129,
    "action": 1,
    "reward": -2.9
  },
  {
    "phase": "TASK",
    "condition": "Cond4",
    "trial_num": 24,
    "trial_length": 10,
    "click_num": 6,
    "RT": 1102,
    "action": 0,
    "reward": -2.4
  },
  {
    "phase": "TASK",
    "condition": "Cond4",
    "trial_num": 24,
    "trial_length": 10,
    "click_num": 7,
    "RT": 705,
    "action": 0,
    "reward": -2.4
  },
  {
    "phase": "TASK",
    "condition": "Cond4",
    "trial_num": 24,
    "trial_length": 10,
    "click_num": 8,
    "RT": 728,
    "action": 0,
    "reward": -2.4
  },
  {
    "phase": "TASK",
    "condition": "Cond4",
    "trial_num": 24,
    "trial_length": 10,
    "click_num": 9,
    "RT": 879,
    "action": 0,
    "reward": -2.4
  },
  {
    "phase": "TASK",
    "condition": "Cond4",
    "trial_num": 24,
    "trial_length": 10,
    "click_num": 10,
    "RT": 851,
    "action": 0,
    "reward": -2.4
  },
  {
    "phase": "TASK",
    "condition": "Cond4",
    "trial_num": 25,
    "trial_length": 10,
    "click_num": 1,
    "RT": 1032,
    "action": 1,
    "reward": -3.8
  },
  {
    "phase": "TASK",
    "condition": "Cond4",
    "trial_num": 25,
    "trial_length": 10,
    "click_num": 2,
    "RT": 1622,
    "action": 1,
    "reward": -3.7
  },
  {
    "phase": "TASK",
    "condition": "Cond4",
    "trial_num": 25,
    "trial_length": 10,
    "click_num": 3,
    "RT": 1082,
    "action": 1,
    "reward": -3.2
  },
  {
    "phase": "TASK",
    "condition": "Cond4",
    "trial_num": 25,
    "trial_length": 10,
    "click_num": 4,
    "RT": 982,
    "action": 1,
    "reward": -2.5
  },
  {
    "phase": "TASK",
    "condition": "Cond4",
    "trial_num": 25,
    "trial_length": 10,
    "click_num": 5,
    "RT": 1832,
    "action": 0,
    "reward": -2.5
  },
  {
    "phase": "TASK",
    "condition": "Cond4",
    "trial_num": 25,
    "trial_length": 10,
    "click_num": 6,
    "RT": 921,
    "action": 0,
    "reward": -2.5
  },
  {
    "phase": "TASK",
    "condition": "Cond4",
    "trial_num": 25,
    "trial_length": 10,
    "click_num": 7,
    "RT": 745,
    "action": 0,
    "reward": -2.5
  },
  {
    "phase": "TASK",
    "condition": "Cond4",
    "trial_num": 25,
    "trial_length": 10,
    "click_num": 8,
    "RT": 654,
    "action": 0,
    "reward": -2.5
  },
  {
    "phase": "TASK",
    "condition": "Cond4",
    "trial_num": 25,
    "trial_length": 10,
    "click_num": 9,
    "RT": 690,
    "action": 0,
    "reward": -2.5
  },
  {
    "phase": "TASK",
    "condition": "Cond4",
    "trial_num": 25,
    "trial_length": 10,
    "click_num": 10,
    "RT": 733,
    "action": 0,
    "reward": -2.5
  },
  {
    "phase": "TASK",
    "condition": "Cond4",
    "trial_num": 26,
    "trial_length": 9,
    "click_num": 1,
    "RT": 949,
    "action": 1,
    "reward": -3.2
  },
  {
    "phase": "TASK",
    "condition": "Cond4",
    "trial_num": 26,
    "trial_length": 9,
    "click_num": 2,
    "RT": 1192,
    "action": 1,
    "reward": -3.7
  },
  {
    "phase": "TASK",
    "condition": "Cond4",
    "trial_num": 26,
    "trial_length": 9,
    "click_num": 3,
    "RT": 960,
    "action": 1,
    "reward": -3.4
  },
  {
    "phase": "TASK",
    "condition": "Cond4",
    "trial_num": 26,
    "trial_length": 9,
    "click_num": 4,
    "RT": 2103,
    "action": 1,
    "reward": -3.4
  },
  {
    "phase": "TASK",
    "condition": "Cond4",
    "trial_num": 26,
    "trial_length": 9,
    "click_num": 5,
    "RT": 1657,
    "action": 1,
    "reward": -3.9
  },
  {
    "phase": "TASK",
    "condition": "Cond4",
    "trial_num": 26,
    "trial_length": 9,
    "click_num": 6,
    "RT": 961,
    "action": 0,
    "reward": -3.2
  },
  {
    "phase": "TASK",
    "condition": "Cond4",
    "trial_num": 26,
    "trial_length": 9,
    "click_num": 7,
    "RT": 751,
    "action": 0,
    "reward": -3.2
  },
  {
    "phase": "TASK",
    "condition": "Cond4",
    "trial_num": 26,
    "trial_length": 9,
    "click_num": 8,
    "RT": 799,
    "action": 0,
    "reward": -3.2
  },
  {
    "phase": "TASK",
    "condition": "Cond4",
    "trial_num": 26,
    "trial_length": 9,
    "click_num": 9,
    "RT": 1025,
    "action": 0,
    "reward": -3.2
  },
  {
    "phase": "TASK",
    "condition": "Cond4",
    "trial_num": 27,
    "trial_length": 8,
    "click_num": 1,
    "RT": 982,
    "action": 1,
    "reward": -2.6
  },
  {
    "phase": "TASK",
    "condition": "Cond4",
    "trial_num": 27,
    "trial_length": 8,
    "click_num": 2,
    "RT": 2046,
    "action": 1,
    "reward": -3.1
  },
  {
    "phase": "TASK",
    "condition": "Cond4",
    "trial_num": 27,
    "trial_length": 8,
    "click_num": 3,
    "RT": 1168,
    "action": 1,
    "reward": -2.9
  },
  {
    "phase": "TASK",
    "condition": "Cond4",
    "trial_num": 27,
    "trial_length": 8,
    "click_num": 4,
    "RT": 1033,
    "action": 0,
    "reward": -2.6
  },
  {
    "phase": "TASK",
    "condition": "Cond4",
    "trial_num": 27,
    "trial_length": 8,
    "click_num": 5,
    "RT": 648,
    "action": 0,
    "reward": -2.6
  },
  {
    "phase": "TASK",
    "condition": "Cond4",
    "trial_num": 27,
    "trial_length": 8,
    "click_num": 6,
    "RT": 969,
    "action": 0,
    "reward": -2.6
  },
  {
    "phase": "TASK",
    "condition": "Cond4",
    "trial_num": 27,
    "trial_length": 8,
    "click_num": 7,
    "RT": 1464,
    "action": 0,
    "reward": -2.6
  },
  {
    "phase": "TASK",
    "condition": "Cond4",
    "trial_num": 27,
    "trial_length": 8,
    "click_num": 8,
    "RT": 941,
    "action": 0,
    "reward": -2.6
  },
  {
    "phase": "TASK",
    "condition": "Cond4",
    "trial_num": 28,
    "trial_length": 8,
    "click_num": 1,
    "RT": 1386,
    "action": 1,
    "reward": -2.9
  },
  {
    "phase": "TASK",
    "condition": "Cond4",
    "trial_num": 28,
    "trial_length": 8,
    "click_num": 2,
    "RT": 1997,
    "action": 1,
    "reward": -3.2
  },
  {
    "phase": "TASK",
    "condition": "Cond4",
    "trial_num": 28,
    "trial_length": 8,
    "click_num": 3,
    "RT": 1066,
    "action": 1,
    "reward": -2.7
  },
  {
    "phase": "TASK",
    "condition": "Cond4",
    "trial_num": 28,
    "trial_length": 8,
    "click_num": 4,
    "RT": 1421,
    "action": 0,
    "reward": -2.7
  },
  {
    "phase": "TASK",
    "condition": "Cond4",
    "trial_num": 28,
    "trial_length": 8,
    "click_num": 5,
    "RT": 730,
    "action": 0,
    "reward": -2.7
  },
  {
    "phase": "TASK",
    "condition": "Cond4",
    "trial_num": 28,
    "trial_length": 8,
    "click_num": 6,
    "RT": 985,
    "action": 0,
    "reward": -2.7
  },
  {
    "phase": "TASK",
    "condition": "Cond4",
    "trial_num": 28,
    "trial_length": 8,
    "click_num": 7,
    "RT": 781,
    "action": 0,
    "reward": -2.7
  },
  {
    "phase": "TASK",
    "condition": "Cond4",
    "trial_num": 28,
    "trial_length": 8,
    "click_num": 8,
    "RT": 735,
    "action": 0,
    "reward": -2.7
  },
  {
    "phase": "TASK",
    "condition": "Cond4",
    "trial_num": 29,
    "trial_length": 7,
    "click_num": 1,
    "RT": 1133,
    "action": 1,
    "reward": -3.3
  },
  {
    "phase": "TASK",
    "condition": "Cond4",
    "trial_num": 29,
    "trial_length": 7,
    "click_num": 2,
    "RT": 1809,
    "action": 1,
    "reward": -3.5
  },
  {
    "phase": "TASK",
    "condition": "Cond4",
    "trial_num": 29,
    "trial_length": 7,
    "click_num": 3,
    "RT": 1560,
    "action": 1,
    "reward": -3.8
  },
  {
    "phase": "TASK",
    "condition": "Cond4",
    "trial_num": 29,
    "trial_length": 7,
    "click_num": 4,
    "RT": 992,
    "action": 0,
    "reward": -3.3
  },
  {
    "phase": "TASK",
    "condition": "Cond4",
    "trial_num": 29,
    "trial_length": 7,
    "click_num": 5,
    "RT": 743,
    "action": 0,
    "reward": -3.3
  },
  {
    "phase": "TASK",
    "condition": "Cond4",
    "trial_num": 29,
    "trial_length": 7,
    "click_num": 6,
    "RT": 834,
    "action": 0,
    "reward": -3.3
  },
  {
    "phase": "TASK",
    "condition": "Cond4",
    "trial_num": 29,
    "trial_length": 7,
    "click_num": 7,
    "RT": 746,
    "action": 1,
    "reward": -3.5
  },
  {
    "phase": "TASK",
    "condition": "Cond4",
    "trial_num": 30,
    "trial_length": 10,
    "click_num": 1,
    "RT": 1157,
    "action": 1,
    "reward": -3.6
  },
  {
    "phase": "TASK",
    "condition": "Cond4",
    "trial_num": 30,
    "trial_length": 10,
    "click_num": 2,
    "RT": 1521,
    "action": 1,
    "reward": -2.6
  },
  {
    "phase": "TASK",
    "condition": "Cond4",
    "trial_num": 30,
    "trial_length": 10,
    "click_num": 3,
    "RT": 1864,
    "action": 0,
    "reward": -2.6
  },
  {
    "phase": "TASK",
    "condition": "Cond4",
    "trial_num": 30,
    "trial_length": 10,
    "click_num": 4,
    "RT": 608,
    "action": 0,
    "reward": -2.6
  },
  {
    "phase": "TASK",
    "condition": "Cond4",
    "trial_num": 30,
    "trial_length": 10,
    "click_num": 5,
    "RT": 655,
    "action": 0,
    "reward": -2.6
  },
  {
    "phase": "TASK",
    "condition": "Cond4",
    "trial_num": 30,
    "trial_length": 10,
    "click_num": 6,
    "RT": 689,
    "action": 0,
    "reward": -2.6
  },
  {
    "phase": "TASK",
    "condition": "Cond4",
    "trial_num": 30,
    "trial_length": 10,
    "click_num": 7,
    "RT": 664,
    "action": 0,
    "reward": -2.6
  },
  {
    "phase": "TASK",
    "condition": "Cond4",
    "trial_num": 30,
    "trial_length": 10,
    "click_num": 8,
    "RT": 751,
    "action": 0,
    "reward": -2.6
  },
  {
    "phase": "TASK",
    "condition": "Cond4",
    "trial_num": 30,
    "trial_length": 10,
    "click_num": 9,
    "RT": 825,
    "action": 1,
    "reward": -2.7
  },
  {
    "phase": "TASK",
    "condition": "Cond4",
    "trial_num": 30,
    "trial_length": 10,
    "click_num": 10,
    "RT": 855,
    "action": 1,
    "reward": -3.2
  },
  {
    "phase": "TASK",
    "condition": "Cond4",
    "trial_num": 31,
    "trial_length": 9,
    "click_num": 1,
    "RT": 943,
    "action": 1,
    "reward": -2.7
  },
  {
    "phase": "TASK",
    "condition": "Cond4",
    "trial_num": 31,
    "trial_length": 9,
    "click_num": 2,
    "RT": 1824,
    "action": 1,
    "reward": -2.4
  },
  {
    "phase": "TASK",
    "condition": "Cond4",
    "trial_num": 31,
    "trial_length": 9,
    "click_num": 3,
    "RT": 1560,
    "action": 0,
    "reward": -2.4
  },
  {
    "phase": "TASK",
    "condition": "Cond4",
    "trial_num": 31,
    "trial_length": 9,
    "click_num": 4,
    "RT": 648,
    "action": 0,
    "reward": -2.4
  },
  {
    "phase": "TASK",
    "condition": "Cond4",
    "trial_num": 31,
    "trial_length": 9,
    "click_num": 5,
    "RT": 624,
    "action": 0,
    "reward": -2.4
  },
  {
    "phase": "TASK",
    "condition": "Cond4",
    "trial_num": 31,
    "trial_length": 9,
    "click_num": 6,
    "RT": 632,
    "action": 0,
    "reward": -2.4
  },
  {
    "phase": "TASK",
    "condition": "Cond4",
    "trial_num": 31,
    "trial_length": 9,
    "click_num": 7,
    "RT": 688,
    "action": 0,
    "reward": -2.4
  },
  {
    "phase": "TASK",
    "condition": "Cond4",
    "trial_num": 31,
    "trial_length": 9,
    "click_num": 8,
    "RT": 832,
    "action": 0,
    "reward": -2.4
  },
  {
    "phase": "TASK",
    "condition": "Cond4",
    "trial_num": 31,
    "trial_length": 9,
    "click_num": 9,
    "RT": 704,
    "action": 1,
    "reward": -4.3
  },
  {
    "phase": "TASK",
    "condition": "Cond4",
    "trial_num": 32,
    "trial_length": 8,
    "click_num": 1,
    "RT": 983,
    "action": 1,
    "reward": -3.6
  },
  {
    "phase": "TASK",
    "condition": "Cond4",
    "trial_num": 32,
    "trial_length": 8,
    "click_num": 2,
    "RT": 1713,
    "action": 1,
    "reward": -3.8
  },
  {
    "phase": "TASK",
    "condition": "Cond4",
    "trial_num": 32,
    "trial_length": 8,
    "click_num": 3,
    "RT": 1271,
    "action": 1,
    "reward": -3.4
  },
  {
    "phase": "TASK",
    "condition": "Cond4",
    "trial_num": 32,
    "trial_length": 8,
    "click_num": 4,
    "RT": 1704,
    "action": 1,
    "reward": -3.2
  },
  {
    "phase": "TASK",
    "condition": "Cond4",
    "trial_num": 32,
    "trial_length": 8,
    "click_num": 5,
    "RT": 1082,
    "action": 1,
    "reward": -4
  },
  {
    "phase": "TASK",
    "condition": "Cond4",
    "trial_num": 32,
    "trial_length": 8,
    "click_num": 6,
    "RT": 1167,
    "action": 1,
    "reward": -3.2
  },
  {
    "phase": "TASK",
    "condition": "Cond4",
    "trial_num": 32,
    "trial_length": 8,
    "click_num": 7,
    "RT": 938,
    "action": 0,
    "reward": -3.2
  },
  {
    "phase": "TASK",
    "condition": "Cond4",
    "trial_num": 32,
    "trial_length": 8,
    "click_num": 8,
    "RT": 790,
    "action": 0,
    "reward": -3.2
  },
  {
    "phase": "TASK",
    "condition": "Cond4",
    "trial_num": 33,
    "trial_length": 7,
    "click_num": 1,
    "RT": 1441,
    "action": 1,
    "reward": -2.4
  },
  {
    "phase": "TASK",
    "condition": "Cond4",
    "trial_num": 33,
    "trial_length": 7,
    "click_num": 2,
    "RT": 1548,
    "action": 0,
    "reward": -2.4
  },
  {
    "phase": "TASK",
    "condition": "Cond4",
    "trial_num": 33,
    "trial_length": 7,
    "click_num": 3,
    "RT": 839,
    "action": 0,
    "reward": -2.4
  },
  {
    "phase": "TASK",
    "condition": "Cond4",
    "trial_num": 33,
    "trial_length": 7,
    "click_num": 4,
    "RT": 673,
    "action": 0,
    "reward": -2.4
  },
  {
    "phase": "TASK",
    "condition": "Cond4",
    "trial_num": 33,
    "trial_length": 7,
    "click_num": 5,
    "RT": 736,
    "action": 0,
    "reward": -2.4
  },
  {
    "phase": "TASK",
    "condition": "Cond4",
    "trial_num": 33,
    "trial_length": 7,
    "click_num": 6,
    "RT": 1147,
    "action": 0,
    "reward": -2.4
  },
  {
    "phase": "TASK",
    "condition": "Cond4",
    "trial_num": 33,
    "trial_length": 7,
    "click_num": 7,
    "RT": 926,
    "action": 1,
    "reward": -2.8
  },
  {
    "phase": "TASK",
    "condition": "Cond4",
    "trial_num": 34,
    "trial_length": 9,
    "click_num": 1,
    "RT": 1202,
    "action": 1,
    "reward": -3.2
  },
  {
    "phase": "TASK",
    "condition": "Cond4",
    "trial_num": 34,
    "trial_length": 9,
    "click_num": 2,
    "RT": 1376,
    "action": 1,
    "reward": -3
  },
  {
    "phase": "TASK",
    "condition": "Cond4",
    "trial_num": 34,
    "trial_length": 9,
    "click_num": 3,
    "RT": 1320,
    "action": 1,
    "reward": -2.9
  },
  {
    "phase": "TASK",
    "condition": "Cond4",
    "trial_num": 34,
    "trial_length": 9,
    "click_num": 4,
    "RT": 1383,
    "action": 1,
    "reward": -2.6
  },
  {
    "phase": "TASK",
    "condition": "Cond4",
    "trial_num": 34,
    "trial_length": 9,
    "click_num": 5,
    "RT": 1129,
    "action": 1,
    "reward": -2.9
  },
  {
    "phase": "TASK",
    "condition": "Cond4",
    "trial_num": 34,
    "trial_length": 9,
    "click_num": 6,
    "RT": 1472,
    "action": 0,
    "reward": -2.6
  },
  {
    "phase": "TASK",
    "condition": "Cond4",
    "trial_num": 34,
    "trial_length": 9,
    "click_num": 7,
    "RT": 703,
    "action": 0,
    "reward": -2.6
  },
  {
    "phase": "TASK",
    "condition": "Cond4",
    "trial_num": 34,
    "trial_length": 9,
    "click_num": 8,
    "RT": 833,
    "action": 0,
    "reward": -2.6
  },
  {
    "phase": "TASK",
    "condition": "Cond4",
    "trial_num": 34,
    "trial_length": 9,
    "click_num": 9,
    "RT": 1098,
    "action": 0,
    "reward": -2.6
  },
  {
    "phase": "TASK",
    "condition": "Cond4",
    "trial_num": 35,
    "trial_length": 8,
    "click_num": 1,
    "RT": 1515,
    "action": 1,
    "reward": -3.7
  },
  {
    "phase": "TASK",
    "condition": "Cond4",
    "trial_num": 35,
    "trial_length": 8,
    "click_num": 2,
    "RT": 1617,
    "action": 1,
    "reward": -2.5
  },
  {
    "phase": "TASK",
    "condition": "Cond4",
    "trial_num": 35,
    "trial_length": 8,
    "click_num": 3,
    "RT": 1642,
    "action": 1,
    "reward": -1.9
  },
  {
    "phase": "TASK",
    "condition": "Cond4",
    "trial_num": 35,
    "trial_length": 8,
    "click_num": 4,
    "RT": 2558,
    "action": 1,
    "reward": -4.1
  },
  {
    "phase": "TASK",
    "condition": "Cond4",
    "trial_num": 35,
    "trial_length": 8,
    "click_num": 5,
    "RT": 1071,
    "action": 0,
    "reward": -1.9
  },
  {
    "phase": "TASK",
    "condition": "Cond4",
    "trial_num": 35,
    "trial_length": 8,
    "click_num": 6,
    "RT": 856,
    "action": 0,
    "reward": -1.9
  },
  {
    "phase": "TASK",
    "condition": "Cond4",
    "trial_num": 35,
    "trial_length": 8,
    "click_num": 7,
    "RT": 697,
    "action": 0,
    "reward": -1.9
  },
  {
    "phase": "TASK",
    "condition": "Cond4",
    "trial_num": 35,
    "trial_length": 8,
    "click_num": 8,
    "RT": 1152,
    "action": 0,
    "reward": -1.9
  },
  {
    "phase": "TASK",
    "condition": "Cond4",
    "trial_num": 36,
    "trial_length": 7,
    "click_num": 1,
    "RT": 1007,
    "action": 1,
    "reward": -3.3
  },
  {
    "phase": "TASK",
    "condition": "Cond4",
    "trial_num": 36,
    "trial_length": 7,
    "click_num": 2,
    "RT": 1648,
    "action": 1,
    "reward": -3.5
  },
  {
    "phase": "TASK",
    "condition": "Cond4",
    "trial_num": 36,
    "trial_length": 7,
    "click_num": 3,
    "RT": 1128,
    "action": 1,
    "reward": -3.2
  },
  {
    "phase": "TASK",
    "condition": "Cond4",
    "trial_num": 36,
    "trial_length": 7,
    "click_num": 4,
    "RT": 1431,
    "action": 0,
    "reward": -3.2
  },
  {
    "phase": "TASK",
    "condition": "Cond4",
    "trial_num": 36,
    "trial_length": 7,
    "click_num": 5,
    "RT": 625,
    "action": 0,
    "reward": -3.2
  },
  {
    "phase": "TASK",
    "condition": "Cond4",
    "trial_num": 36,
    "trial_length": 7,
    "click_num": 6,
    "RT": 753,
    "action": 0,
    "reward": -3.2
  },
  {
    "phase": "TASK",
    "condition": "Cond4",
    "trial_num": 36,
    "trial_length": 7,
    "click_num": 7,
    "RT": 719,
    "action": 1,
    "reward": -2.6
  },
  {
    "phase": "TASK",
    "condition": "Cond4",
    "trial_num": 37,
    "trial_length": 5,
    "click_num": 1,
    "RT": 1052,
    "action": 1,
    "reward": -2.1
  },
  {
    "phase": "TASK",
    "condition": "Cond4",
    "trial_num": 37,
    "trial_length": 5,
    "click_num": 2,
    "RT": 1793,
    "action": 0,
    "reward": -2.1
  },
  {
    "phase": "TASK",
    "condition": "Cond4",
    "trial_num": 37,
    "trial_length": 5,
    "click_num": 3,
    "RT": 1271,
    "action": 0,
    "reward": -2.1
  },
  {
    "phase": "TASK",
    "condition": "Cond4",
    "trial_num": 37,
    "trial_length": 5,
    "click_num": 4,
    "RT": 977,
    "action": 0,
    "reward": -2.1
  },
  {
    "phase": "TASK",
    "condition": "Cond4",
    "trial_num": 37,
    "trial_length": 5,
    "click_num": 5,
    "RT": 775,
    "action": 1,
    "reward": -3
  },
  {
    "phase": "TASK",
    "condition": "Cond4",
    "trial_num": 38,
    "trial_length": 10,
    "click_num": 1,
    "RT": 1120,
    "action": 1,
    "reward": -3.5
  },
  {
    "phase": "TASK",
    "condition": "Cond4",
    "trial_num": 38,
    "trial_length": 10,
    "click_num": 2,
    "RT": 1393,
    "action": 1,
    "reward": -2.5
  },
  {
    "phase": "TASK",
    "condition": "Cond4",
    "trial_num": 38,
    "trial_length": 10,
    "click_num": 3,
    "RT": 1392,
    "action": 0,
    "reward": -2.5
  },
  {
    "phase": "TASK",
    "condition": "Cond4",
    "trial_num": 38,
    "trial_length": 10,
    "click_num": 4,
    "RT": 682,
    "action": 0,
    "reward": -2.5
  },
  {
    "phase": "TASK",
    "condition": "Cond4",
    "trial_num": 38,
    "trial_length": 10,
    "click_num": 5,
    "RT": 638,
    "action": 0,
    "reward": -2.5
  },
  {
    "phase": "TASK",
    "condition": "Cond4",
    "trial_num": 38,
    "trial_length": 10,
    "click_num": 6,
    "RT": 775,
    "action": 0,
    "reward": -2.5
  },
  {
    "phase": "TASK",
    "condition": "Cond4",
    "trial_num": 38,
    "trial_length": 10,
    "click_num": 7,
    "RT": 864,
    "action": 0,
    "reward": -2.5
  },
  {
    "phase": "TASK",
    "condition": "Cond4",
    "trial_num": 38,
    "trial_length": 10,
    "click_num": 8,
    "RT": 728,
    "action": 0,
    "reward": -2.5
  },
  {
    "phase": "TASK",
    "condition": "Cond4",
    "trial_num": 38,
    "trial_length": 10,
    "click_num": 9,
    "RT": 808,
    "action": 1,
    "reward": -3.3
  },
  {
    "phase": "TASK",
    "condition": "Cond4",
    "trial_num": 38,
    "trial_length": 10,
    "click_num": 10,
    "RT": 839,
    "action": 1,
    "reward": -2.7
  },
  {
    "phase": "TASK",
    "condition": "Cond4",
    "trial_num": 39,
    "trial_length": 7,
    "click_num": 1,
    "RT": 881,
    "action": 1,
    "reward": -2.4
  },
  {
    "phase": "TASK",
    "condition": "Cond4",
    "trial_num": 39,
    "trial_length": 7,
    "click_num": 2,
    "RT": 1694,
    "action": 0,
    "reward": -2.4
  },
  {
    "phase": "TASK",
    "condition": "Cond4",
    "trial_num": 39,
    "trial_length": 7,
    "click_num": 3,
    "RT": 608,
    "action": 0,
    "reward": -2.4
  },
  {
    "phase": "TASK",
    "condition": "Cond4",
    "trial_num": 39,
    "trial_length": 7,
    "click_num": 4,
    "RT": 855,
    "action": 0,
    "reward": -2.4
  },
  {
    "phase": "TASK",
    "condition": "Cond4",
    "trial_num": 39,
    "trial_length": 7,
    "click_num": 5,
    "RT": 689,
    "action": 0,
    "reward": -2.4
  },
  {
    "phase": "TASK",
    "condition": "Cond4",
    "trial_num": 39,
    "trial_length": 7,
    "click_num": 6,
    "RT": 751,
    "action": 1,
    "reward": -3.3
  },
  {
    "phase": "TASK",
    "condition": "Cond4",
    "trial_num": 39,
    "trial_length": 7,
    "click_num": 7,
    "RT": 776,
    "action": 0,
    "reward": -2.4
  },
  {
    "phase": "TASK",
    "condition": "Cond4",
    "trial_num": 40,
    "trial_length": 6,
    "click_num": 1,
    "RT": 1086,
    "action": 1,
    "reward": -3.2
  },
  {
    "phase": "TASK",
    "condition": "Cond4",
    "trial_num": 40,
    "trial_length": 6,
    "click_num": 2,
    "RT": 1160,
    "action": 1,
    "reward": -3.1
  },
  {
    "phase": "TASK",
    "condition": "Cond4",
    "trial_num": 40,
    "trial_length": 6,
    "click_num": 3,
    "RT": 1938,
    "action": 1,
    "reward": -2.5
  },
  {
    "phase": "TASK",
    "condition": "Cond4",
    "trial_num": 40,
    "trial_length": 6,
    "click_num": 4,
    "RT": 2967,
    "action": 0,
    "reward": -2.5
  },
  {
    "phase": "TASK",
    "condition": "Cond4",
    "trial_num": 40,
    "trial_length": 6,
    "click_num": 5,
    "RT": 719,
    "action": 0,
    "reward": -2.5
  },
  {
    "phase": "TASK",
    "condition": "Cond4",
    "trial_num": 40,
    "trial_length": 6,
    "click_num": 6,
    "RT": 720,
    "action": 0,
    "reward": -2.5
  },
  {
    "phase": "TASK",
    "condition": "Cond4",
    "trial_num": 41,
    "trial_length": 9,
    "click_num": 1,
    "RT": 926,
    "action": 1,
    "reward": -3.7
  },
  {
    "phase": "TASK",
    "condition": "Cond4",
    "trial_num": 41,
    "trial_length": 9,
    "click_num": 2,
    "RT": 1336,
    "action": 1,
    "reward": -2.8
  },
  {
    "phase": "TASK",
    "condition": "Cond4",
    "trial_num": 41,
    "trial_length": 9,
    "click_num": 3,
    "RT": 1208,
    "action": 1,
    "reward": -2.8
  },
  {
    "phase": "TASK",
    "condition": "Cond4",
    "trial_num": 41,
    "trial_length": 9,
    "click_num": 4,
    "RT": 1416,
    "action": 1,
    "reward": -2.6
  },
  {
    "phase": "TASK",
    "condition": "Cond4",
    "trial_num": 41,
    "trial_length": 9,
    "click_num": 5,
    "RT": 1768,
    "action": 1,
    "reward": -3.2
  },
  {
    "phase": "TASK",
    "condition": "Cond4",
    "trial_num": 41,
    "trial_length": 9,
    "click_num": 6,
    "RT": 1255,
    "action": 0,
    "reward": -2.6
  },
  {
    "phase": "TASK",
    "condition": "Cond4",
    "trial_num": 41,
    "trial_length": 9,
    "click_num": 7,
    "RT": 836,
    "action": 0,
    "reward": -2.6
  },
  {
    "phase": "TASK",
    "condition": "Cond4",
    "trial_num": 41,
    "trial_length": 9,
    "click_num": 8,
    "RT": 653,
    "action": 0,
    "reward": -2.6
  },
  {
    "phase": "TASK",
    "condition": "Cond4",
    "trial_num": 41,
    "trial_length": 9,
    "click_num": 9,
    "RT": 656,
    "action": 0,
    "reward": -2.6
  },
  {
    "phase": "TASK",
    "condition": "Cond4",
    "trial_num": 42,
    "trial_length": 7,
    "click_num": 1,
    "RT": 870,
    "action": 1,
    "reward": -3.5
  },
  {
    "phase": "TASK",
    "condition": "Cond4",
    "trial_num": 42,
    "trial_length": 7,
    "click_num": 2,
    "RT": 1912,
    "action": 1,
    "reward": -2.5
  },
  {
    "phase": "TASK",
    "condition": "Cond4",
    "trial_num": 42,
    "trial_length": 7,
    "click_num": 3,
    "RT": 1167,
    "action": 1,
    "reward": -2.3
  },
  {
    "phase": "TASK",
    "condition": "Cond4",
    "trial_num": 42,
    "trial_length": 7,
    "click_num": 4,
    "RT": 1457,
    "action": 1,
    "reward": -2.9
  },
  {
    "phase": "TASK",
    "condition": "Cond4",
    "trial_num": 42,
    "trial_length": 7,
    "click_num": 5,
    "RT": 791,
    "action": 0,
    "reward": -2.3
  },
  {
    "phase": "TASK",
    "condition": "Cond4",
    "trial_num": 42,
    "trial_length": 7,
    "click_num": 6,
    "RT": 592,
    "action": 0,
    "reward": -2.3
  },
  {
    "phase": "TASK",
    "condition": "Cond4",
    "trial_num": 42,
    "trial_length": 7,
    "click_num": 7,
    "RT": 657,
    "action": 0,
    "reward": -2.3
  },
  {
    "phase": "TASK",
    "condition": "Cond4",
    "trial_num": 43,
    "trial_length": 9,
    "click_num": 1,
    "RT": 1288,
    "action": 1,
    "reward": -3.3
  },
  {
    "phase": "TASK",
    "condition": "Cond4",
    "trial_num": 43,
    "trial_length": 9,
    "click_num": 2,
    "RT": 1039,
    "action": 1,
    "reward": -3.1
  },
  {
    "phase": "TASK",
    "condition": "Cond4",
    "trial_num": 43,
    "trial_length": 9,
    "click_num": 3,
    "RT": 928,
    "action": 1,
    "reward": -3.5
  },
  {
    "phase": "TASK",
    "condition": "Cond4",
    "trial_num": 43,
    "trial_length": 9,
    "click_num": 4,
    "RT": 1024,
    "action": 1,
    "reward": -3.1
  },
  {
    "phase": "TASK",
    "condition": "Cond4",
    "trial_num": 43,
    "trial_length": 9,
    "click_num": 5,
    "RT": 936,
    "action": 0,
    "reward": -3.1
  },
  {
    "phase": "TASK",
    "condition": "Cond4",
    "trial_num": 43,
    "trial_length": 9,
    "click_num": 6,
    "RT": 627,
    "action": 0,
    "reward": -3.1
  },
  {
    "phase": "TASK",
    "condition": "Cond4",
    "trial_num": 43,
    "trial_length": 9,
    "click_num": 7,
    "RT": 654,
    "action": 0,
    "reward": -3.1
  },
  {
    "phase": "TASK",
    "condition": "Cond4",
    "trial_num": 43,
    "trial_length": 9,
    "click_num": 8,
    "RT": 702,
    "action": 0,
    "reward": -3.1
  },
  {
    "phase": "TASK",
    "condition": "Cond4",
    "trial_num": 43,
    "trial_length": 9,
    "click_num": 9,
    "RT": 905,
    "action": 0,
    "reward": -3.1
  },
  {
    "phase": "TASK",
    "condition": "Cond4",
    "trial_num": 44,
    "trial_length": 9,
    "click_num": 1,
    "RT": 1133,
    "action": 1,
    "reward": -3.2
  },
  {
    "phase": "TASK",
    "condition": "Cond4",
    "trial_num": 44,
    "trial_length": 9,
    "click_num": 2,
    "RT": 5560,
    "action": 1,
    "reward": -3
  },
  {
    "phase": "TASK",
    "condition": "Cond4",
    "trial_num": 44,
    "trial_length": 9,
    "click_num": 3,
    "RT": 1305,
    "action": 1,
    "reward": -3.7
  },
  {
    "phase": "TASK",
    "condition": "Cond4",
    "trial_num": 44,
    "trial_length": 9,
    "click_num": 4,
    "RT": 1456,
    "action": 1,
    "reward": -2
  },
  {
    "phase": "TASK",
    "condition": "Cond4",
    "trial_num": 44,
    "trial_length": 9,
    "click_num": 5,
    "RT": 873,
    "action": 0,
    "reward": -2
  },
  {
    "phase": "TASK",
    "condition": "Cond4",
    "trial_num": 44,
    "trial_length": 9,
    "click_num": 6,
    "RT": 905,
    "action": 0,
    "reward": -2
  },
  {
    "phase": "TASK",
    "condition": "Cond4",
    "trial_num": 44,
    "trial_length": 9,
    "click_num": 7,
    "RT": 630,
    "action": 0,
    "reward": -2
  },
  {
    "phase": "TASK",
    "condition": "Cond4",
    "trial_num": 44,
    "trial_length": 9,
    "click_num": 8,
    "RT": 671,
    "action": 0,
    "reward": -2
  },
  {
    "phase": "TASK",
    "condition": "Cond4",
    "trial_num": 44,
    "trial_length": 9,
    "click_num": 9,
    "RT": 864,
    "action": 0,
    "reward": -2
  },
  {
    "phase": "TASK",
    "condition": "Cond4",
    "trial_num": 45,
    "trial_length": 9,
    "click_num": 1,
    "RT": 912,
    "action": 1,
    "reward": -2.7
  },
  {
    "phase": "TASK",
    "condition": "Cond4",
    "trial_num": 45,
    "trial_length": 9,
    "click_num": 2,
    "RT": 1385,
    "action": 1,
    "reward": -3.8
  },
  {
    "phase": "TASK",
    "condition": "Cond4",
    "trial_num": 45,
    "trial_length": 9,
    "click_num": 3,
    "RT": 911,
    "action": 1,
    "reward": -2.4
  },
  {
    "phase": "TASK",
    "condition": "Cond4",
    "trial_num": 45,
    "trial_length": 9,
    "click_num": 4,
    "RT": 1032,
    "action": 1,
    "reward": -2.7
  },
  {
    "phase": "TASK",
    "condition": "Cond4",
    "trial_num": 45,
    "trial_length": 9,
    "click_num": 5,
    "RT": 952,
    "action": 0,
    "reward": -2.4
  },
  {
    "phase": "TASK",
    "condition": "Cond4",
    "trial_num": 45,
    "trial_length": 9,
    "click_num": 6,
    "RT": 993,
    "action": 0,
    "reward": -2.4
  },
  {
    "phase": "TASK",
    "condition": "Cond4",
    "trial_num": 45,
    "trial_length": 9,
    "click_num": 7,
    "RT": 655,
    "action": 0,
    "reward": -2.4
  },
  {
    "phase": "TASK",
    "condition": "Cond4",
    "trial_num": 45,
    "trial_length": 9,
    "click_num": 8,
    "RT": 704,
    "action": 0,
    "reward": -2.4
  },
  {
    "phase": "TASK",
    "condition": "Cond4",
    "trial_num": 45,
    "trial_length": 9,
    "click_num": 9,
    "RT": 632,
    "action": 0,
    "reward": -2.4
  },
  {
    "phase": "TASK",
    "condition": "Cond4",
    "trial_num": 46,
    "trial_length": 8,
    "click_num": 1,
    "RT": 829,
    "action": 1,
    "reward": -3.1
  },
  {
    "phase": "TASK",
    "condition": "Cond4",
    "trial_num": 46,
    "trial_length": 8,
    "click_num": 2,
    "RT": 923,
    "action": 1,
    "reward": -3.5
  },
  {
    "phase": "TASK",
    "condition": "Cond4",
    "trial_num": 46,
    "trial_length": 8,
    "click_num": 3,
    "RT": 829,
    "action": 1,
    "reward": -2.6
  },
  {
    "phase": "TASK",
    "condition": "Cond4",
    "trial_num": 46,
    "trial_length": 8,
    "click_num": 4,
    "RT": 912,
    "action": 0,
    "reward": -2.6
  },
  {
    "phase": "TASK",
    "condition": "Cond4",
    "trial_num": 46,
    "trial_length": 8,
    "click_num": 5,
    "RT": 728,
    "action": 0,
    "reward": -2.6
  },
  {
    "phase": "TASK",
    "condition": "Cond4",
    "trial_num": 46,
    "trial_length": 8,
    "click_num": 6,
    "RT": 944,
    "action": 0,
    "reward": -2.6
  },
  {
    "phase": "TASK",
    "condition": "Cond4",
    "trial_num": 46,
    "trial_length": 8,
    "click_num": 7,
    "RT": 1208,
    "action": 0,
    "reward": -2.6
  },
  {
    "phase": "TASK",
    "condition": "Cond4",
    "trial_num": 46,
    "trial_length": 8,
    "click_num": 8,
    "RT": 848,
    "action": 0,
    "reward": -2.6
  },
  {
    "phase": "TASK",
    "condition": "Cond4",
    "trial_num": 47,
    "trial_length": 6,
    "click_num": 1,
    "RT": 830,
    "action": 1,
    "reward": -2.5
  },
  {
    "phase": "TASK",
    "condition": "Cond4",
    "trial_num": 47,
    "trial_length": 6,
    "click_num": 2,
    "RT": 1336,
    "action": 1,
    "reward": -1.9
  },
  {
    "phase": "TASK",
    "condition": "Cond4",
    "trial_num": 47,
    "trial_length": 6,
    "click_num": 3,
    "RT": 1763,
    "action": 0,
    "reward": -1.9
  },
  {
    "phase": "TASK",
    "condition": "Cond4",
    "trial_num": 47,
    "trial_length": 6,
    "click_num": 4,
    "RT": 711,
    "action": 0,
    "reward": -1.9
  },
  {
    "phase": "TASK",
    "condition": "Cond4",
    "trial_num": 47,
    "trial_length": 6,
    "click_num": 5,
    "RT": 646,
    "action": 0,
    "reward": -1.9
  },
  {
    "phase": "TASK",
    "condition": "Cond4",
    "trial_num": 47,
    "trial_length": 6,
    "click_num": 6,
    "RT": 704,
    "action": 0,
    "reward": -1.9
  },
  {
    "phase": "TASK",
    "condition": "Cond4",
    "trial_num": 48,
    "trial_length": 5,
    "click_num": 1,
    "RT": 787,
    "action": 1,
    "reward": -2.3
  },
  {
    "phase": "TASK",
    "condition": "Cond4",
    "trial_num": 48,
    "trial_length": 5,
    "click_num": 2,
    "RT": 1303,
    "action": 1,
    "reward": -3.3
  },
  {
    "phase": "TASK",
    "condition": "Cond4",
    "trial_num": 48,
    "trial_length": 5,
    "click_num": 3,
    "RT": 1496,
    "action": 1,
    "reward": -2.8
  },
  {
    "phase": "TASK",
    "condition": "Cond4",
    "trial_num": 48,
    "trial_length": 5,
    "click_num": 4,
    "RT": 1273,
    "action": 0,
    "reward": -2.3
  },
  {
    "phase": "TASK",
    "condition": "Cond4",
    "trial_num": 48,
    "trial_length": 5,
    "click_num": 5,
    "RT": 999,
    "action": 0,
    "reward": -2.3
  },
  {
    "phase": "TASK",
    "condition": "Cond4",
    "trial_num": 49,
    "trial_length": 5,
    "click_num": 1,
    "RT": 830,
    "action": 1,
    "reward": -1.8
  },
  {
    "phase": "TASK",
    "condition": "Cond4",
    "trial_num": 49,
    "trial_length": 5,
    "click_num": 2,
    "RT": 1777,
    "action": 0,
    "reward": -1.8
  },
  {
    "phase": "TASK",
    "condition": "Cond4",
    "trial_num": 49,
    "trial_length": 5,
    "click_num": 3,
    "RT": 674,
    "action": 0,
    "reward": -1.8
  },
  {
    "phase": "TASK",
    "condition": "Cond4",
    "trial_num": 49,
    "trial_length": 5,
    "click_num": 4,
    "RT": 678,
    "action": 0,
    "reward": -1.8
  },
  {
    "phase": "TASK",
    "condition": "Cond4",
    "trial_num": 49,
    "trial_length": 5,
    "click_num": 5,
    "RT": 783,
    "action": 0,
    "reward": -1.8
  },
  {
    "phase": "TASK",
    "condition": "Cond4",
    "trial_num": 50,
    "trial_length": 6,
    "click_num": 1,
    "RT": 859,
    "action": 1,
    "reward": -4.6
  },
  {
    "phase": "TASK",
    "condition": "Cond4",
    "trial_num": 50,
    "trial_length": 6,
    "click_num": 2,
    "RT": 872,
    "action": 1,
    "reward": -2.8
  },
  {
    "phase": "TASK",
    "condition": "Cond4",
    "trial_num": 50,
    "trial_length": 6,
    "click_num": 3,
    "RT": 1290,
    "action": 1,
    "reward": -2.9
  },
  {
    "phase": "TASK",
    "condition": "Cond4",
    "trial_num": 50,
    "trial_length": 6,
    "click_num": 4,
    "RT": 1054,
    "action": 1,
    "reward": -2.7
  },
  {
    "phase": "TASK",
    "condition": "Cond4",
    "trial_num": 50,
    "trial_length": 6,
    "click_num": 5,
    "RT": 1304,
    "action": 0,
    "reward": -2.7
  },
  {
    "phase": "TASK",
    "condition": "Cond4",
    "trial_num": 50,
    "trial_length": 6,
    "click_num": 6,
    "RT": 794,
    "action": 0,
    "reward": -2.7
  },
  {
    "phase": "TASK",
    "condition": "Cond4",
    "trial_num": 51,
    "trial_length": 10,
    "click_num": 1,
    "RT": 877,
    "action": 1,
    "reward": -4.2
  },
  {
    "phase": "TASK",
    "condition": "Cond4",
    "trial_num": 51,
    "trial_length": 10,
    "click_num": 2,
    "RT": 1151,
    "action": 1,
    "reward": -2.4
  },
  {
    "phase": "TASK",
    "condition": "Cond4",
    "trial_num": 51,
    "trial_length": 10,
    "click_num": 3,
    "RT": 760,
    "action": 1,
    "reward": -3
  },
  {
    "phase": "TASK",
    "condition": "Cond4",
    "trial_num": 51,
    "trial_length": 10,
    "click_num": 4,
    "RT": 736,
    "action": 1,
    "reward": -2.3
  },
  {
    "phase": "TASK",
    "condition": "Cond4",
    "trial_num": 51,
    "trial_length": 10,
    "click_num": 5,
    "RT": 1169,
    "action": 1,
    "reward": -1.6
  },
  {
    "phase": "TASK",
    "condition": "Cond4",
    "trial_num": 51,
    "trial_length": 10,
    "click_num": 6,
    "RT": 1008,
    "action": 0,
    "reward": -1.6
  },
  {
    "phase": "TASK",
    "condition": "Cond4",
    "trial_num": 51,
    "trial_length": 10,
    "click_num": 7,
    "RT": 1241,
    "action": 0,
    "reward": -1.6
  },
  {
    "phase": "TASK",
    "condition": "Cond4",
    "trial_num": 51,
    "trial_length": 10,
    "click_num": 8,
    "RT": 742,
    "action": 0,
    "reward": -1.6
  },
  {
    "phase": "TASK",
    "condition": "Cond4",
    "trial_num": 51,
    "trial_length": 10,
    "click_num": 9,
    "RT": 696,
    "action": 0,
    "reward": -1.6
  },
  {
    "phase": "TASK",
    "condition": "Cond4",
    "trial_num": 51,
    "trial_length": 10,
    "click_num": 10,
    "RT": 704,
    "action": 0,
    "reward": -1.6
  },
  {
    "phase": "TASK",
    "condition": "Cond4",
    "trial_num": 52,
    "trial_length": 10,
    "click_num": 1,
    "RT": 843,
    "action": 1,
    "reward": -3
  },
  {
    "phase": "TASK",
    "condition": "Cond4",
    "trial_num": 52,
    "trial_length": 10,
    "click_num": 2,
    "RT": 1143,
    "action": 1,
    "reward": -2.8
  },
  {
    "phase": "TASK",
    "condition": "Cond4",
    "trial_num": 52,
    "trial_length": 10,
    "click_num": 3,
    "RT": 680,
    "action": 1,
    "reward": -2.2
  },
  {
    "phase": "TASK",
    "condition": "Cond4",
    "trial_num": 52,
    "trial_length": 10,
    "click_num": 4,
    "RT": 768,
    "action": 1,
    "reward": -3.4
  },
  {
    "phase": "TASK",
    "condition": "Cond4",
    "trial_num": 52,
    "trial_length": 10,
    "click_num": 5,
    "RT": 1513,
    "action": 1,
    "reward": -3.4
  },
  {
    "phase": "TASK",
    "condition": "Cond4",
    "trial_num": 52,
    "trial_length": 10,
    "click_num": 6,
    "RT": 1408,
    "action": 1,
    "reward": -2.9
  },
  {
    "phase": "TASK",
    "condition": "Cond4",
    "trial_num": 52,
    "trial_length": 10,
    "click_num": 7,
    "RT": 729,
    "action": 0,
    "reward": -2.2
  },
  {
    "phase": "TASK",
    "condition": "Cond4",
    "trial_num": 52,
    "trial_length": 10,
    "click_num": 8,
    "RT": 670,
    "action": 0,
    "reward": -2.2
  },
  {
    "phase": "TASK",
    "condition": "Cond4",
    "trial_num": 52,
    "trial_length": 10,
    "click_num": 9,
    "RT": 992,
    "action": 0,
    "reward": -2.2
  },
  {
    "phase": "TASK",
    "condition": "Cond4",
    "trial_num": 52,
    "trial_length": 10,
    "click_num": 10,
    "RT": 728,
    "action": 0,
    "reward": -2.2
  },
  {
    "phase": "TASK",
    "condition": "Cond4",
    "trial_num": 53,
    "trial_length": 5,
    "click_num": 1,
    "RT": 677,
    "action": 1,
    "reward": -3.7
  },
  {
    "phase": "TASK",
    "condition": "Cond4",
    "trial_num": 53,
    "trial_length": 5,
    "click_num": 2,
    "RT": 1135,
    "action": 1,
    "reward": -3.1
  },
  {
    "phase": "TASK",
    "condition": "Cond4",
    "trial_num": 53,
    "trial_length": 5,
    "click_num": 3,
    "RT": 830,
    "action": 0,
    "reward": -3.1
  },
  {
    "phase": "TASK",
    "condition": "Cond4",
    "trial_num": 53,
    "trial_length": 5,
    "click_num": 4,
    "RT": 928,
    "action": 1,
    "reward": -3.7
  },
  {
    "phase": "TASK",
    "condition": "Cond4",
    "trial_num": 53,
    "trial_length": 5,
    "click_num": 5,
    "RT": 787,
    "action": 0,
    "reward": -3.1
  },
  {
    "phase": "TASK",
    "condition": "Cond4",
    "trial_num": 54,
    "trial_length": 6,
    "click_num": 1,
    "RT": 849,
    "action": 1,
    "reward": -4.4
  },
  {
    "phase": "TASK",
    "condition": "Cond4",
    "trial_num": 54,
    "trial_length": 6,
    "click_num": 2,
    "RT": 1767,
    "action": 1,
    "reward": -2.3
  },
  {
    "phase": "TASK",
    "condition": "Cond4",
    "trial_num": 54,
    "trial_length": 6,
    "click_num": 3,
    "RT": 838,
    "action": 1,
    "reward": -2.7
  },
  {
    "phase": "TASK",
    "condition": "Cond4",
    "trial_num": 54,
    "trial_length": 6,
    "click_num": 4,
    "RT": 767,
    "action": 0,
    "reward": -2.3
  },
  {
    "phase": "TASK",
    "condition": "Cond4",
    "trial_num": 54,
    "trial_length": 6,
    "click_num": 5,
    "RT": 617,
    "action": 0,
    "reward": -2.3
  },
  {
    "phase": "TASK",
    "condition": "Cond4",
    "trial_num": 54,
    "trial_length": 6,
    "click_num": 6,
    "RT": 608,
    "action": 0,
    "reward": -2.3
  },
  {
    "phase": "TASK",
    "condition": "Cond4",
    "trial_num": 55,
    "trial_length": 5,
    "click_num": 1,
    "RT": 759,
    "action": 1,
    "reward": -3.7
  },
  {
    "phase": "TASK",
    "condition": "Cond4",
    "trial_num": 55,
    "trial_length": 5,
    "click_num": 2,
    "RT": 1264,
    "action": 1,
    "reward": -3.1
  },
  {
    "phase": "TASK",
    "condition": "Cond4",
    "trial_num": 55,
    "trial_length": 5,
    "click_num": 3,
    "RT": 1600,
    "action": 1,
    "reward": -2.8
  },
  {
    "phase": "TASK",
    "condition": "Cond4",
    "trial_num": 55,
    "trial_length": 5,
    "click_num": 4,
    "RT": 1083,
    "action": 0,
    "reward": -2.8
  },
  {
    "phase": "TASK",
    "condition": "Cond4",
    "trial_num": 55,
    "trial_length": 5,
    "click_num": 5,
    "RT": 653,
    "action": 0,
    "reward": -2.8
  },
  {
    "phase": "TASK",
    "condition": "Cond4",
    "trial_num": 56,
    "trial_length": 10,
    "click_num": 1,
    "RT": 1078,
    "action": 1,
    "reward": -2.4
  },
  {
    "phase": "TASK",
    "condition": "Cond4",
    "trial_num": 56,
    "trial_length": 10,
    "click_num": 2,
    "RT": 1224,
    "action": 1,
    "reward": -3.1
  },
  {
    "phase": "TASK",
    "condition": "Cond4",
    "trial_num": 56,
    "trial_length": 10,
    "click_num": 3,
    "RT": 1001,
    "action": 1,
    "reward": -3.9
  },
  {
    "phase": "TASK",
    "condition": "Cond4",
    "trial_num": 56,
    "trial_length": 10,
    "click_num": 4,
    "RT": 1372,
    "action": 1,
    "reward": -2.9
  },
  {
    "phase": "TASK",
    "condition": "Cond4",
    "trial_num": 56,
    "trial_length": 10,
    "click_num": 5,
    "RT": 679,
    "action": 1,
    "reward": -3
  },
  {
    "phase": "TASK",
    "condition": "Cond4",
    "trial_num": 56,
    "trial_length": 10,
    "click_num": 6,
    "RT": 725,
    "action": 0,
    "reward": -2.4
  },
  {
    "phase": "TASK",
    "condition": "Cond4",
    "trial_num": 56,
    "trial_length": 10,
    "click_num": 7,
    "RT": 608,
    "action": 0,
    "reward": -2.4
  },
  {
    "phase": "TASK",
    "condition": "Cond4",
    "trial_num": 56,
    "trial_length": 10,
    "click_num": 8,
    "RT": 594,
    "action": 0,
    "reward": -2.4
  },
  {
    "phase": "TASK",
    "condition": "Cond4",
    "trial_num": 56,
    "trial_length": 10,
    "click_num": 9,
    "RT": 822,
    "action": 0,
    "reward": -2.4
  },
  {
    "phase": "TASK",
    "condition": "Cond4",
    "trial_num": 56,
    "trial_length": 10,
    "click_num": 10,
    "RT": 1432,
    "action": 0,
    "reward": -2.4
  },
  {
    "phase": "TASK",
    "condition": "Cond4",
    "trial_num": 57,
    "trial_length": 7,
    "click_num": 1,
    "RT": 1166,
    "action": 1,
    "reward": -3.3
  },
  {
    "phase": "TASK",
    "condition": "Cond4",
    "trial_num": 57,
    "trial_length": 7,
    "click_num": 2,
    "RT": 872,
    "action": 1,
    "reward": -2.6
  },
  {
    "phase": "TASK",
    "condition": "Cond4",
    "trial_num": 57,
    "trial_length": 7,
    "click_num": 3,
    "RT": 1041,
    "action": 1,
    "reward": -3.2
  },
  {
    "phase": "TASK",
    "condition": "Cond4",
    "trial_num": 57,
    "trial_length": 7,
    "click_num": 4,
    "RT": 1039,
    "action": 1,
    "reward": -3.1
  },
  {
    "phase": "TASK",
    "condition": "Cond4",
    "trial_num": 57,
    "trial_length": 7,
    "click_num": 5,
    "RT": 1064,
    "action": 0,
    "reward": -2.6
  },
  {
    "phase": "TASK",
    "condition": "Cond4",
    "trial_num": 57,
    "trial_length": 7,
    "click_num": 6,
    "RT": 634,
    "action": 0,
    "reward": -2.6
  },
  {
    "phase": "TASK",
    "condition": "Cond4",
    "trial_num": 57,
    "trial_length": 7,
    "click_num": 7,
    "RT": 865,
    "action": 0,
    "reward": -2.6
  },
  {
    "phase": "TASK",
    "condition": "Cond4",
    "trial_num": 58,
    "trial_length": 7,
    "click_num": 1,
    "RT": 1422,
    "action": 1,
    "reward": -1.8
  },
  {
    "phase": "TASK",
    "condition": "Cond4",
    "trial_num": 58,
    "trial_length": 7,
    "click_num": 2,
    "RT": 1327,
    "action": 1,
    "reward": -2.9
  },
  {
    "phase": "TASK",
    "condition": "Cond4",
    "trial_num": 58,
    "trial_length": 7,
    "click_num": 3,
    "RT": 1602,
    "action": 0,
    "reward": -1.8
  },
  {
    "phase": "TASK",
    "condition": "Cond4",
    "trial_num": 58,
    "trial_length": 7,
    "click_num": 4,
    "RT": 600,
    "action": 0,
    "reward": -1.8
  },
  {
    "phase": "TASK",
    "condition": "Cond4",
    "trial_num": 58,
    "trial_length": 7,
    "click_num": 5,
    "RT": 598,
    "action": 0,
    "reward": -1.8
  },
  {
    "phase": "TASK",
    "condition": "Cond4",
    "trial_num": 58,
    "trial_length": 7,
    "click_num": 6,
    "RT": 632,
    "action": 0,
    "reward": -1.8
  },
  {
    "phase": "TASK",
    "condition": "Cond4",
    "trial_num": 58,
    "trial_length": 7,
    "click_num": 7,
    "RT": 571,
    "action": 0,
    "reward": -1.8
  },
  {
    "phase": "TASK",
    "condition": "Cond4",
    "trial_num": 59,
    "trial_length": 6,
    "click_num": 1,
    "RT": 813,
    "action": 1,
    "reward": -2.7
  },
  {
    "phase": "TASK",
    "condition": "Cond4",
    "trial_num": 59,
    "trial_length": 6,
    "click_num": 2,
    "RT": 689,
    "action": 1,
    "reward": -3.4
  },
  {
    "phase": "TASK",
    "condition": "Cond4",
    "trial_num": 59,
    "trial_length": 6,
    "click_num": 3,
    "RT": 687,
    "action": 0,
    "reward": -2.7
  },
  {
    "phase": "TASK",
    "condition": "Cond4",
    "trial_num": 59,
    "trial_length": 6,
    "click_num": 4,
    "RT": 1232,
    "action": 0,
    "reward": -2.7
  },
  {
    "phase": "TASK",
    "condition": "Cond4",
    "trial_num": 59,
    "trial_length": 6,
    "click_num": 5,
    "RT": 648,
    "action": 0,
    "reward": -2.7
  },
  {
    "phase": "TASK",
    "condition": "Cond4",
    "trial_num": 59,
    "trial_length": 6,
    "click_num": 6,
    "RT": 881,
    "action": 0,
    "reward": -2.7
  },
  {
    "phase": "TASK",
    "condition": "Cond4",
    "trial_num": 60,
    "trial_length": 8,
    "click_num": 1,
    "RT": 1015,
    "action": 1,
    "reward": -2.9
  },
  {
    "phase": "TASK",
    "condition": "Cond4",
    "trial_num": 60,
    "trial_length": 8,
    "click_num": 2,
    "RT": 1066,
    "action": 1,
    "reward": -2.6
  },
  {
    "phase": "TASK",
    "condition": "Cond4",
    "trial_num": 60,
    "trial_length": 8,
    "click_num": 3,
    "RT": 1856,
    "action": 0,
    "reward": -2.6
  },
  {
    "phase": "TASK",
    "condition": "Cond4",
    "trial_num": 60,
    "trial_length": 8,
    "click_num": 4,
    "RT": 1798,
    "action": 0,
    "reward": -2.6
  },
  {
    "phase": "TASK",
    "condition": "Cond4",
    "trial_num": 60,
    "trial_length": 8,
    "click_num": 5,
    "RT": 664,
    "action": 0,
    "reward": -2.6
  },
  {
    "phase": "TASK",
    "condition": "Cond4",
    "trial_num": 60,
    "trial_length": 8,
    "click_num": 6,
    "RT": 992,
    "action": 0,
    "reward": -2.6
  },
  {
    "phase": "TASK",
    "condition": "Cond4",
    "trial_num": 60,
    "trial_length": 8,
    "click_num": 7,
    "RT": 708,
    "action": 0,
    "reward": -2.6
  },
  {
    "phase": "TASK",
    "condition": "Cond4",
    "trial_num": 60,
    "trial_length": 8,
    "click_num": 8,
    "RT": 741,
    "action": 1,
    "reward": -3.4
  },
  {
    "phase": "TASK",
    "condition": "Cond4",
    "trial_num": 61,
    "trial_length": 7,
    "click_num": 1,
    "RT": 1390,
    "action": 1,
    "reward": -3.6
  },
  {
    "phase": "TASK",
    "condition": "Cond4",
    "trial_num": 61,
    "trial_length": 7,
    "click_num": 2,
    "RT": 2170,
    "action": 1,
    "reward": -3.1
  },
  {
    "phase": "TASK",
    "condition": "Cond4",
    "trial_num": 61,
    "trial_length": 7,
    "click_num": 3,
    "RT": 2029,
    "action": 1,
    "reward": -3.1
  },
  {
    "phase": "TASK",
    "condition": "Cond4",
    "trial_num": 61,
    "trial_length": 7,
    "click_num": 4,
    "RT": 1202,
    "action": 1,
    "reward": -2.7
  },
  {
    "phase": "TASK",
    "condition": "Cond4",
    "trial_num": 61,
    "trial_length": 7,
    "click_num": 5,
    "RT": 1889,
    "action": 0,
    "reward": -2.7
  },
  {
    "phase": "TASK",
    "condition": "Cond4",
    "trial_num": 61,
    "trial_length": 7,
    "click_num": 6,
    "RT": 590,
    "action": 0,
    "reward": -2.7
  },
  {
    "phase": "TASK",
    "condition": "Cond4",
    "trial_num": 61,
    "trial_length": 7,
    "click_num": 7,
    "RT": 576,
    "action": 0,
    "reward": -2.7
  },
  {
    "phase": "TASK",
    "condition": "Cond4",
    "trial_num": 62,
    "trial_length": 7,
    "click_num": 1,
    "RT": 976,
    "action": 1,
    "reward": -3.7
  },
  {
    "phase": "TASK",
    "condition": "Cond4",
    "trial_num": 62,
    "trial_length": 7,
    "click_num": 2,
    "RT": 1126,
    "action": 1,
    "reward": -3.8
  },
  {
    "phase": "TASK",
    "condition": "Cond4",
    "trial_num": 62,
    "trial_length": 7,
    "click_num": 3,
    "RT": 1087,
    "action": 1,
    "reward": -2.6
  },
  {
    "phase": "TASK",
    "condition": "Cond4",
    "trial_num": 62,
    "trial_length": 7,
    "click_num": 4,
    "RT": 835,
    "action": 1,
    "reward": -2.7
  },
  {
    "phase": "TASK",
    "condition": "Cond4",
    "trial_num": 62,
    "trial_length": 7,
    "click_num": 5,
    "RT": 733,
    "action": 0,
    "reward": -2.6
  },
  {
    "phase": "TASK",
    "condition": "Cond4",
    "trial_num": 62,
    "trial_length": 7,
    "click_num": 6,
    "RT": 600,
    "action": 0,
    "reward": -2.6
  },
  {
    "phase": "TASK",
    "condition": "Cond4",
    "trial_num": 62,
    "trial_length": 7,
    "click_num": 7,
    "RT": 697,
    "action": 0,
    "reward": -2.6
  },
  {
    "phase": "TASK",
    "condition": "Cond4",
    "trial_num": 63,
    "trial_length": 5,
    "click_num": 1,
    "RT": 952,
    "action": 1,
    "reward": -3.6
  },
  {
    "phase": "TASK",
    "condition": "Cond4",
    "trial_num": 63,
    "trial_length": 5,
    "click_num": 2,
    "RT": 1141,
    "action": 1,
    "reward": -3.4
  },
  {
    "phase": "TASK",
    "condition": "Cond4",
    "trial_num": 63,
    "trial_length": 5,
    "click_num": 3,
    "RT": 1020,
    "action": 1,
    "reward": -3.3
  },
  {
    "phase": "TASK",
    "condition": "Cond4",
    "trial_num": 63,
    "trial_length": 5,
    "click_num": 4,
    "RT": 1286,
    "action": 1,
    "reward": -3.4
  },
  {
    "phase": "TASK",
    "condition": "Cond4",
    "trial_num": 63,
    "trial_length": 5,
    "click_num": 5,
    "RT": 953,
    "action": 0,
    "reward": -3.3
  },
  {
    "phase": "TASK",
    "condition": "Cond4",
    "trial_num": 64,
    "trial_length": 10,
    "click_num": 1,
    "RT": 854,
    "action": 1,
    "reward": -1.3
  },
  {
    "phase": "TASK",
    "condition": "Cond4",
    "trial_num": 64,
    "trial_length": 10,
    "click_num": 2,
    "RT": 1827,
    "action": 0,
    "reward": -1.3
  },
  {
    "phase": "TASK",
    "condition": "Cond4",
    "trial_num": 64,
    "trial_length": 10,
    "click_num": 3,
    "RT": 664,
    "action": 0,
    "reward": -1.3
  },
  {
    "phase": "TASK",
    "condition": "Cond4",
    "trial_num": 64,
    "trial_length": 10,
    "click_num": 4,
    "RT": 881,
    "action": 0,
    "reward": -1.3
  },
  {
    "phase": "TASK",
    "condition": "Cond4",
    "trial_num": 64,
    "trial_length": 10,
    "click_num": 5,
    "RT": 645,
    "action": 0,
    "reward": -1.3
  },
  {
    "phase": "TASK",
    "condition": "Cond4",
    "trial_num": 64,
    "trial_length": 10,
    "click_num": 6,
    "RT": 680,
    "action": 0,
    "reward": -1.3
  },
  {
    "phase": "TASK",
    "condition": "Cond4",
    "trial_num": 64,
    "trial_length": 10,
    "click_num": 7,
    "RT": 703,
    "action": 0,
    "reward": -1.3
  },
  {
    "phase": "TASK",
    "condition": "Cond4",
    "trial_num": 64,
    "trial_length": 10,
    "click_num": 8,
    "RT": 697,
    "action": 0,
    "reward": -1.3
  },
  {
    "phase": "TASK",
    "condition": "Cond4",
    "trial_num": 64,
    "trial_length": 10,
    "click_num": 9,
    "RT": 698,
    "action": 0,
    "reward": -1.3
  },
  {
    "phase": "TASK",
    "condition": "Cond4",
    "trial_num": 64,
    "trial_length": 10,
    "click_num": 10,
    "RT": 688,
    "action": 0,
    "reward": -1.3
  },
  {
    "phase": "TASK",
    "condition": "Cond4",
    "trial_num": 65,
    "trial_length": 7,
    "click_num": 1,
    "RT": 982,
    "action": 1,
    "reward": -2.1
  },
  {
    "phase": "TASK",
    "condition": "Cond4",
    "trial_num": 65,
    "trial_length": 7,
    "click_num": 2,
    "RT": 2689,
    "action": 1,
    "reward": -2.8
  },
  {
    "phase": "TASK",
    "condition": "Cond4",
    "trial_num": 65,
    "trial_length": 7,
    "click_num": 3,
    "RT": 744,
    "action": 0,
    "reward": -2.1
  },
  {
    "phase": "TASK",
    "condition": "Cond4",
    "trial_num": 65,
    "trial_length": 7,
    "click_num": 4,
    "RT": 591,
    "action": 0,
    "reward": -2.1
  },
  {
    "phase": "TASK",
    "condition": "Cond4",
    "trial_num": 65,
    "trial_length": 7,
    "click_num": 5,
    "RT": 631,
    "action": 0,
    "reward": -2.1
  },
  {
    "phase": "TASK",
    "condition": "Cond4",
    "trial_num": 65,
    "trial_length": 7,
    "click_num": 6,
    "RT": 651,
    "action": 0,
    "reward": -2.1
  },
  {
    "phase": "TASK",
    "condition": "Cond4",
    "trial_num": 65,
    "trial_length": 7,
    "click_num": 7,
    "RT": 1150,
    "action": 0,
    "reward": -2.1
  },
  {
    "phase": "TASK",
    "condition": "Cond4",
    "trial_num": 66,
    "trial_length": 8,
    "click_num": 1,
    "RT": 831,
    "action": 1,
    "reward": -2.5
  },
  {
    "phase": "TASK",
    "condition": "Cond4",
    "trial_num": 66,
    "trial_length": 8,
    "click_num": 2,
    "RT": 1607,
    "action": 0,
    "reward": -2.5
  },
  {
    "phase": "TASK",
    "condition": "Cond4",
    "trial_num": 66,
    "trial_length": 8,
    "click_num": 3,
    "RT": 640,
    "action": 0,
    "reward": -2.5
  },
  {
    "phase": "TASK",
    "condition": "Cond4",
    "trial_num": 66,
    "trial_length": 8,
    "click_num": 4,
    "RT": 633,
    "action": 0,
    "reward": -2.5
  },
  {
    "phase": "TASK",
    "condition": "Cond4",
    "trial_num": 66,
    "trial_length": 8,
    "click_num": 5,
    "RT": 1279,
    "action": 0,
    "reward": -2.5
  },
  {
    "phase": "TASK",
    "condition": "Cond4",
    "trial_num": 66,
    "trial_length": 8,
    "click_num": 6,
    "RT": 616,
    "action": 0,
    "reward": -2.5
  },
  {
    "phase": "TASK",
    "condition": "Cond4",
    "trial_num": 66,
    "trial_length": 8,
    "click_num": 7,
    "RT": 684,
    "action": 0,
    "reward": -2.5
  },
  {
    "phase": "TASK",
    "condition": "Cond4",
    "trial_num": 66,
    "trial_length": 8,
    "click_num": 8,
    "RT": 1111,
    "action": 1,
    "reward": -2.7
  },
  {
    "phase": "TASK",
    "condition": "Cond4",
    "trial_num": 67,
    "trial_length": 6,
    "click_num": 1,
    "RT": 861,
    "action": 1,
    "reward": -2.7
  },
  {
    "phase": "TASK",
    "condition": "Cond4",
    "trial_num": 67,
    "trial_length": 6,
    "click_num": 2,
    "RT": 1264,
    "action": 0,
    "reward": -2.7
  },
  {
    "phase": "TASK",
    "condition": "Cond4",
    "trial_num": 67,
    "trial_length": 6,
    "click_num": 3,
    "RT": 816,
    "action": 1,
    "reward": -2.1
  },
  {
    "phase": "TASK",
    "condition": "Cond4",
    "trial_num": 67,
    "trial_length": 6,
    "click_num": 4,
    "RT": 1568,
    "action": 0,
    "reward": -2.1
  },
  {
    "phase": "TASK",
    "condition": "Cond4",
    "trial_num": 67,
    "trial_length": 6,
    "click_num": 5,
    "RT": 736,
    "action": 0,
    "reward": -2.1
  },
  {
    "phase": "TASK",
    "condition": "Cond4",
    "trial_num": 67,
    "trial_length": 6,
    "click_num": 6,
    "RT": 752,
    "action": 0,
    "reward": -2.1
  },
  {
    "phase": "TASK",
    "condition": "Cond4",
    "trial_num": 68,
    "trial_length": 8,
    "click_num": 1,
    "RT": 903,
    "action": 1,
    "reward": -3.2
  },
  {
    "phase": "TASK",
    "condition": "Cond4",
    "trial_num": 68,
    "trial_length": 8,
    "click_num": 2,
    "RT": 947,
    "action": 1,
    "reward": -2.9
  },
  {
    "phase": "TASK",
    "condition": "Cond4",
    "trial_num": 68,
    "trial_length": 8,
    "click_num": 3,
    "RT": 1351,
    "action": 1,
    "reward": -2.8
  },
  {
    "phase": "TASK",
    "condition": "Cond4",
    "trial_num": 68,
    "trial_length": 8,
    "click_num": 4,
    "RT": 1319,
    "action": 1,
    "reward": -4.5
  },
  {
    "phase": "TASK",
    "condition": "Cond4",
    "trial_num": 68,
    "trial_length": 8,
    "click_num": 5,
    "RT": 1167,
    "action": 0,
    "reward": -2.8
  },
  {
    "phase": "TASK",
    "condition": "Cond4",
    "trial_num": 68,
    "trial_length": 8,
    "click_num": 6,
    "RT": 674,
    "action": 0,
    "reward": -2.8
  },
  {
    "phase": "TASK",
    "condition": "Cond4",
    "trial_num": 68,
    "trial_length": 8,
    "click_num": 7,
    "RT": 616,
    "action": 0,
    "reward": -2.8
  },
  {
    "phase": "TASK",
    "condition": "Cond4",
    "trial_num": 68,
    "trial_length": 8,
    "click_num": 8,
    "RT": 975,
    "action": 0,
    "reward": -2.8
  },
  {
    "phase": "TASK",
    "condition": "Cond4",
    "trial_num": 69,
    "trial_length": 9,
    "click_num": 1,
    "RT": 886,
    "action": 1,
    "reward": -2.9
  },
  {
    "phase": "TASK",
    "condition": "Cond4",
    "trial_num": 69,
    "trial_length": 9,
    "click_num": 2,
    "RT": 1051,
    "action": 1,
    "reward": -3.1
  },
  {
    "phase": "TASK",
    "condition": "Cond4",
    "trial_num": 69,
    "trial_length": 9,
    "click_num": 3,
    "RT": 1357,
    "action": 1,
    "reward": -3.5
  },
  {
    "phase": "TASK",
    "condition": "Cond4",
    "trial_num": 69,
    "trial_length": 9,
    "click_num": 4,
    "RT": 824,
    "action": 1,
    "reward": -3.1
  },
  {
    "phase": "TASK",
    "condition": "Cond4",
    "trial_num": 69,
    "trial_length": 9,
    "click_num": 5,
    "RT": 1016,
    "action": 1,
    "reward": -3.3
  },
  {
    "phase": "TASK",
    "condition": "Cond4",
    "trial_num": 69,
    "trial_length": 9,
    "click_num": 6,
    "RT": 904,
    "action": 0,
    "reward": -2.9
  },
  {
    "phase": "TASK",
    "condition": "Cond4",
    "trial_num": 69,
    "trial_length": 9,
    "click_num": 7,
    "RT": 927,
    "action": 0,
    "reward": -2.9
  },
  {
    "phase": "TASK",
    "condition": "Cond4",
    "trial_num": 69,
    "trial_length": 9,
    "click_num": 8,
    "RT": 625,
    "action": 0,
    "reward": -2.9
  },
  {
    "phase": "TASK",
    "condition": "Cond4",
    "trial_num": 69,
    "trial_length": 9,
    "click_num": 9,
    "RT": 811,
    "action": 0,
    "reward": -2.9
  },
  {
    "phase": "TASK",
    "condition": "Cond4",
    "trial_num": 70,
    "trial_length": 10,
    "click_num": 1,
    "RT": 745,
    "action": 1,
    "reward": -2.6
  },
  {
    "phase": "TASK",
    "condition": "Cond4",
    "trial_num": 70,
    "trial_length": 10,
    "click_num": 2,
    "RT": 1042,
    "action": 1,
    "reward": -2.6
  },
  {
    "phase": "TASK",
    "condition": "Cond4",
    "trial_num": 70,
    "trial_length": 10,
    "click_num": 3,
    "RT": 869,
    "action": 1,
    "reward": -2.2
  },
  {
    "phase": "TASK",
    "condition": "Cond4",
    "trial_num": 70,
    "trial_length": 10,
    "click_num": 4,
    "RT": 920,
    "action": 1,
    "reward": -2.1
  },
  {
    "phase": "TASK",
    "condition": "Cond4",
    "trial_num": 70,
    "trial_length": 10,
    "click_num": 5,
    "RT": 1184,
    "action": 1,
    "reward": -3.6
  },
  {
    "phase": "TASK",
    "condition": "Cond4",
    "trial_num": 70,
    "trial_length": 10,
    "click_num": 6,
    "RT": 936,
    "action": 0,
    "reward": -2.1
  },
  {
    "phase": "TASK",
    "condition": "Cond4",
    "trial_num": 70,
    "trial_length": 10,
    "click_num": 7,
    "RT": 631,
    "action": 0,
    "reward": -2.1
  },
  {
    "phase": "TASK",
    "condition": "Cond4",
    "trial_num": 70,
    "trial_length": 10,
    "click_num": 8,
    "RT": 617,
    "action": 0,
    "reward": -2.1
  },
  {
    "phase": "TASK",
    "condition": "Cond4",
    "trial_num": 70,
    "trial_length": 10,
    "click_num": 9,
    "RT": 1016,
    "action": 0,
    "reward": -2.1
  },
  {
    "phase": "TASK",
    "condition": "Cond4",
    "trial_num": 70,
    "trial_length": 10,
    "click_num": 10,
    "RT": 752,
    "action": 0,
    "reward": -2.1
  },
  {
    "phase": "TASK",
    "condition": "Cond4",
    "trial_num": 71,
    "trial_length": 8,
    "click_num": 1,
    "RT": 1134,
    "action": 1,
    "reward": -2.8
  },
  {
    "phase": "TASK",
    "condition": "Cond4",
    "trial_num": 71,
    "trial_length": 8,
    "click_num": 2,
    "RT": 800,
    "action": 1,
    "reward": -2.8
  },
  {
    "phase": "TASK",
    "condition": "Cond4",
    "trial_num": 71,
    "trial_length": 8,
    "click_num": 3,
    "RT": 863,
    "action": 1,
    "reward": -2.9
  },
  {
    "phase": "TASK",
    "condition": "Cond4",
    "trial_num": 71,
    "trial_length": 8,
    "click_num": 4,
    "RT": 849,
    "action": 1,
    "reward": -2.6
  },
  {
    "phase": "TASK",
    "condition": "Cond4",
    "trial_num": 71,
    "trial_length": 8,
    "click_num": 5,
    "RT": 863,
    "action": 1,
    "reward": -3.4
  },
  {
    "phase": "TASK",
    "condition": "Cond4",
    "trial_num": 71,
    "trial_length": 8,
    "click_num": 6,
    "RT": 720,
    "action": 0,
    "reward": -2.6
  },
  {
    "phase": "TASK",
    "condition": "Cond4",
    "trial_num": 71,
    "trial_length": 8,
    "click_num": 7,
    "RT": 793,
    "action": 0,
    "reward": -2.6
  },
  {
    "phase": "TASK",
    "condition": "Cond4",
    "trial_num": 71,
    "trial_length": 8,
    "click_num": 8,
    "RT": 687,
    "action": 0,
    "reward": -2.6
  },
  {
    "phase": "TASK",
    "condition": "Cond4",
    "trial_num": 72,
    "trial_length": 8,
    "click_num": 1,
    "RT": 999,
    "action": 1,
    "reward": -3.2
  },
  {
    "phase": "TASK",
    "condition": "Cond4",
    "trial_num": 72,
    "trial_length": 8,
    "click_num": 2,
    "RT": 1544,
    "action": 1,
    "reward": -3.5
  },
  {
    "phase": "TASK",
    "condition": "Cond4",
    "trial_num": 72,
    "trial_length": 8,
    "click_num": 3,
    "RT": 905,
    "action": 1,
    "reward": -4
  },
  {
    "phase": "TASK",
    "condition": "Cond4",
    "trial_num": 72,
    "trial_length": 8,
    "click_num": 4,
    "RT": 864,
    "action": 1,
    "reward": -2.7
  },
  {
    "phase": "TASK",
    "condition": "Cond4",
    "trial_num": 72,
    "trial_length": 8,
    "click_num": 5,
    "RT": 1256,
    "action": 1,
    "reward": -4.2
  },
  {
    "phase": "TASK",
    "condition": "Cond4",
    "trial_num": 72,
    "trial_length": 8,
    "click_num": 6,
    "RT": 656,
    "action": 0,
    "reward": -2.7
  },
  {
    "phase": "TASK",
    "condition": "Cond4",
    "trial_num": 72,
    "trial_length": 8,
    "click_num": 7,
    "RT": 567,
    "action": 0,
    "reward": -2.7
  },
  {
    "phase": "TASK",
    "condition": "Cond4",
    "trial_num": 72,
    "trial_length": 8,
    "click_num": 8,
    "RT": 667,
    "action": 0,
    "reward": -2.7
  },
  {
    "phase": "TASK",
    "condition": "Cond4",
    "trial_num": 73,
    "trial_length": 10,
    "click_num": 1,
    "RT": 751,
    "action": 1,
    "reward": -2.6
  },
  {
    "phase": "TASK",
    "condition": "Cond4",
    "trial_num": 73,
    "trial_length": 10,
    "click_num": 2,
    "RT": 823,
    "action": 1,
    "reward": -4.1
  },
  {
    "phase": "TASK",
    "condition": "Cond4",
    "trial_num": 73,
    "trial_length": 10,
    "click_num": 3,
    "RT": 799,
    "action": 1,
    "reward": -2.7
  },
  {
    "phase": "TASK",
    "condition": "Cond4",
    "trial_num": 73,
    "trial_length": 10,
    "click_num": 4,
    "RT": 680,
    "action": 0,
    "reward": -2.6
  },
  {
    "phase": "TASK",
    "condition": "Cond4",
    "trial_num": 73,
    "trial_length": 10,
    "click_num": 5,
    "RT": 649,
    "action": 0,
    "reward": -2.6
  },
  {
    "phase": "TASK",
    "condition": "Cond4",
    "trial_num": 73,
    "trial_length": 10,
    "click_num": 6,
    "RT": 657,
    "action": 0,
    "reward": -2.6
  },
  {
    "phase": "TASK",
    "condition": "Cond4",
    "trial_num": 73,
    "trial_length": 10,
    "click_num": 7,
    "RT": 614,
    "action": 0,
    "reward": -2.6
  },
  {
    "phase": "TASK",
    "condition": "Cond4",
    "trial_num": 73,
    "trial_length": 10,
    "click_num": 8,
    "RT": 648,
    "action": 0,
    "reward": -2.6
  },
  {
    "phase": "TASK",
    "condition": "Cond4",
    "trial_num": 73,
    "trial_length": 10,
    "click_num": 9,
    "RT": 627,
    "action": 0,
    "reward": -2.6
  },
  {
    "phase": "TASK",
    "condition": "Cond4",
    "trial_num": 73,
    "trial_length": 10,
    "click_num": 10,
    "RT": 630,
    "action": 0,
    "reward": -2.6
  },
  {
    "phase": "TASK",
    "condition": "Cond4",
    "trial_num": 74,
    "trial_length": 7,
    "click_num": 1,
    "RT": 726,
    "action": 1,
    "reward": -2.4
  },
  {
    "phase": "TASK",
    "condition": "Cond4",
    "trial_num": 74,
    "trial_length": 7,
    "click_num": 2,
    "RT": 1065,
    "action": 1,
    "reward": -1.6
  },
  {
    "phase": "TASK",
    "condition": "Cond4",
    "trial_num": 74,
    "trial_length": 7,
    "click_num": 3,
    "RT": 1313,
    "action": 0,
    "reward": -1.6
  },
  {
    "phase": "TASK",
    "condition": "Cond4",
    "trial_num": 74,
    "trial_length": 7,
    "click_num": 4,
    "RT": 1294,
    "action": 0,
    "reward": -1.6
  },
  {
    "phase": "TASK",
    "condition": "Cond4",
    "trial_num": 74,
    "trial_length": 7,
    "click_num": 5,
    "RT": 816,
    "action": 0,
    "reward": -1.6
  },
  {
    "phase": "TASK",
    "condition": "Cond4",
    "trial_num": 74,
    "trial_length": 7,
    "click_num": 6,
    "RT": 800,
    "action": 0,
    "reward": -1.6
  },
  {
    "phase": "TASK",
    "condition": "Cond4",
    "trial_num": 74,
    "trial_length": 7,
    "click_num": 7,
    "RT": 633,
    "action": 0,
    "reward": -1.6
  },
  {
    "phase": "TASK",
    "condition": "Cond4",
    "trial_num": 75,
    "trial_length": 6,
    "click_num": 1,
    "RT": 694,
    "action": 1,
    "reward": -3.7
  },
  {
    "phase": "TASK",
    "condition": "Cond4",
    "trial_num": 75,
    "trial_length": 6,
    "click_num": 2,
    "RT": 1518,
    "action": 1,
    "reward": -2.7
  },
  {
    "phase": "TASK",
    "condition": "Cond4",
    "trial_num": 75,
    "trial_length": 6,
    "click_num": 3,
    "RT": 1226,
    "action": 1,
    "reward": -3.8
  },
  {
    "phase": "TASK",
    "condition": "Cond4",
    "trial_num": 75,
    "trial_length": 6,
    "click_num": 4,
    "RT": 1546,
    "action": 0,
    "reward": -2.7
  },
  {
    "phase": "TASK",
    "condition": "Cond4",
    "trial_num": 75,
    "trial_length": 6,
    "click_num": 5,
    "RT": 696,
    "action": 0,
    "reward": -2.7
  },
  {
    "phase": "TASK",
    "condition": "Cond4",
    "trial_num": 75,
    "trial_length": 6,
    "click_num": 6,
    "RT": 1183,
    "action": 0,
    "reward": -2.7
  },
  {
    "phase": "TASK",
    "condition": "Cond4",
    "trial_num": 76,
    "trial_length": 9,
    "click_num": 1,
    "RT": 1085,
    "action": 1,
    "reward": -3.4
  },
  {
    "phase": "TASK",
    "condition": "Cond4",
    "trial_num": 76,
    "trial_length": 9,
    "click_num": 2,
    "RT": 1386,
    "action": 1,
    "reward": -2.7
  },
  {
    "phase": "TASK",
    "condition": "Cond4",
    "trial_num": 76,
    "trial_length": 9,
    "click_num": 3,
    "RT": 1047,
    "action": 1,
    "reward": -3.4
  },
  {
    "phase": "TASK",
    "condition": "Cond4",
    "trial_num": 76,
    "trial_length": 9,
    "click_num": 4,
    "RT": 1166,
    "action": 1,
    "reward": -2.9
  },
  {
    "phase": "TASK",
    "condition": "Cond4",
    "trial_num": 76,
    "trial_length": 9,
    "click_num": 5,
    "RT": 1121,
    "action": 1,
    "reward": -3.8
  },
  {
    "phase": "TASK",
    "condition": "Cond4",
    "trial_num": 76,
    "trial_length": 9,
    "click_num": 6,
    "RT": 674,
    "action": 0,
    "reward": -2.7
  },
  {
    "phase": "TASK",
    "condition": "Cond4",
    "trial_num": 76,
    "trial_length": 9,
    "click_num": 7,
    "RT": 831,
    "action": 0,
    "reward": -2.7
  },
  {
    "phase": "TASK",
    "condition": "Cond4",
    "trial_num": 76,
    "trial_length": 9,
    "click_num": 8,
    "RT": 624,
    "action": 0,
    "reward": -2.7
  },
  {
    "phase": "TASK",
    "condition": "Cond4",
    "trial_num": 76,
    "trial_length": 9,
    "click_num": 9,
    "RT": 692,
    "action": 0,
    "reward": -2.7
  },
  {
    "phase": "TASK",
    "condition": "Cond4",
    "trial_num": 77,
    "trial_length": 7,
    "click_num": 1,
    "RT": 990,
    "action": 1,
    "reward": -1.5
  },
  {
    "phase": "TASK",
    "condition": "Cond4",
    "trial_num": 77,
    "trial_length": 7,
    "click_num": 2,
    "RT": 1328,
    "action": 0,
    "reward": -1.5
  },
  {
    "phase": "TASK",
    "condition": "Cond4",
    "trial_num": 77,
    "trial_length": 7,
    "click_num": 3,
    "RT": 874,
    "action": 0,
    "reward": -1.5
  },
  {
    "phase": "TASK",
    "condition": "Cond4",
    "trial_num": 77,
    "trial_length": 7,
    "click_num": 4,
    "RT": 1008,
    "action": 0,
    "reward": -1.5
  },
  {
    "phase": "TASK",
    "condition": "Cond4",
    "trial_num": 77,
    "trial_length": 7,
    "click_num": 5,
    "RT": 670,
    "action": 0,
    "reward": -1.5
  },
  {
    "phase": "TASK",
    "condition": "Cond4",
    "trial_num": 77,
    "trial_length": 7,
    "click_num": 6,
    "RT": 743,
    "action": 0,
    "reward": -1.5
  },
  {
    "phase": "TASK",
    "condition": "Cond4",
    "trial_num": 77,
    "trial_length": 7,
    "click_num": 7,
    "RT": 777,
    "action": 1,
    "reward": -3.2
  },
  {
    "phase": "TASK",
    "condition": "Cond4",
    "trial_num": 78,
    "trial_length": 7,
    "click_num": 1,
    "RT": 1318,
    "action": 1,
    "reward": -3
  },
  {
    "phase": "TASK",
    "condition": "Cond4",
    "trial_num": 78,
    "trial_length": 7,
    "click_num": 2,
    "RT": 864,
    "action": 1,
    "reward": -2.5
  },
  {
    "phase": "TASK",
    "condition": "Cond4",
    "trial_num": 78,
    "trial_length": 7,
    "click_num": 3,
    "RT": 767,
    "action": 1,
    "reward": -3.3
  },
  {
    "phase": "TASK",
    "condition": "Cond4",
    "trial_num": 78,
    "trial_length": 7,
    "click_num": 4,
    "RT": 815,
    "action": 1,
    "reward": -3.4
  },
  {
    "phase": "TASK",
    "condition": "Cond4",
    "trial_num": 78,
    "trial_length": 7,
    "click_num": 5,
    "RT": 1201,
    "action": 0,
    "reward": -2.5
  },
  {
    "phase": "TASK",
    "condition": "Cond4",
    "trial_num": 78,
    "trial_length": 7,
    "click_num": 6,
    "RT": 620,
    "action": 0,
    "reward": -2.5
  },
  {
    "phase": "TASK",
    "condition": "Cond4",
    "trial_num": 78,
    "trial_length": 7,
    "click_num": 7,
    "RT": 655,
    "action": 0,
    "reward": -2.5
  },
  {
    "phase": "TASK",
    "condition": "Cond4",
    "trial_num": 79,
    "trial_length": 8,
    "click_num": 1,
    "RT": 998,
    "action": 1,
    "reward": -3.7
  },
  {
    "phase": "TASK",
    "condition": "Cond4",
    "trial_num": 79,
    "trial_length": 8,
    "click_num": 2,
    "RT": 1164,
    "action": 1,
    "reward": -3.9
  },
