[
  {
    "phase": "TASK",
    "condition": "Cond1",
    "trial_num": 1,
    "trial_length": 9,
    "click_num": 1,
    "RT": 6870,
    "action": 1,
    "reward": 2.9
  },
  {
    "phase": "TASK",
    "condition": "Cond1",
    "trial_num": 1,
    "trial_length": 9,
    "click_num": 2,
    "RT": 11486,
    "action": 0,
    "reward": 2.9
  },
  {
    "phase": "TASK",
    "condition": "Cond1",
    "trial_num": 1,
    "trial_length": 9,
    "click_num": 3,
    "RT": 5151,
    "action": 1,
    "reward": 3.7
  },
  {
    "phase": "TASK",
    "condition": "Cond1",
    "trial_num": 1,
    "trial_length": 9,
    "click_num": 4,
    "RT": 6872,
    "action": 1,
    "reward": 3.6
  },
  {
    "phase": "TASK",
    "condition": "Cond1",
    "trial_num": 1,
    "trial_length": 9,
    "click_num": 5,
    "RT": 2279,
    "action": 1,
    "reward": 2.9
  },
  {
    "phase": "TASK",
    "condition": "Cond1",
    "trial_num": 1,
    "trial_length": 9,
    "click_num": 6,
    "RT": 2769,
    "action": 1,
    "reward": 3.1
  },
  {
    "phase": "TASK",
    "condition": "Cond1",
    "trial_num": 1,
    "trial_length": 9,
    "click_num": 7,
    "RT": 2000,
    "action": 1,
    "reward": 3.2
  },
  {
    "phase": "TASK",
    "condition": "Cond1",
    "trial_num": 1,
    "trial_length": 9,
    "click_num": 8,
    "RT": 1656,
    "action": 1,
    "reward": 3
  },
  {
    "phase": "TASK",
    "condition": "Cond1",
    "trial_num": 1,
    "trial_length": 9,
    "click_num": 9,
    "RT": 3145,
    "action": 1,
    "reward": 3.2
  },
  {
    "phase": "TASK",
    "condition": "Cond1",
    "trial_num": 2,
    "trial_length": 9,
    "click_num": 1,
    "RT": 2069,
    "action": 1,
    "reward": 3
  },
  {
    "phase": "TASK",
    "condition": "Cond1",
    "trial_num": 2,
    "trial_length": 9,
    "click_num": 2,
    "RT": 2784,
    "action": 1,
    "reward": 3.9
  },
  {
    "phase": "TASK",
    "condition": "Cond1",
    "trial_num": 2,
    "trial_length": 9,
    "click_num": 3,
    "RT": 2352,
    "action": 0,
    "reward": 3.9
  },
  {
    "phase": "TASK",
    "condition": "Cond1",
    "trial_num": 2,
    "trial_length": 9,
    "click_num": 4,
    "RT": 1182,
    "action": 0,
    "reward": 3.9
  },
  {
    "phase": "TASK",
    "condition": "Cond1",
    "trial_num": 2,
    "trial_length": 9,
    "click_num": 5,
    "RT": 953,
    "action": 0,
    "reward": 3.9
  },
  {
    "phase": "TASK",
    "condition": "Cond1",
    "trial_num": 2,
    "trial_length": 9,
    "click_num": 6,
    "RT": 929,
    "action": 0,
    "reward": 3.9
  },
  {
    "phase": "TASK",
    "condition": "Cond1",
    "trial_num": 2,
    "trial_length": 9,
    "click_num": 7,
    "RT": 825,
    "action": 0,
    "reward": 3.9
  },
  {
    "phase": "TASK",
    "condition": "Cond1",
    "trial_num": 2,
    "trial_length": 9,
    "click_num": 8,
    "RT": 1039,
    "action": 0,
    "reward": 3.9
  },
  {
    "phase": "TASK",
    "condition": "Cond1",
    "trial_num": 2,
    "trial_length": 9,
    "click_num": 9,
    "RT": 984,
    "action": 0,
    "reward": 3.9
  },
  {
    "phase": "TASK",
    "condition": "Cond1",
    "trial_num": 3,
    "trial_length": 10,
    "click_num": 1,
    "RT": 1463,
    "action": 1,
    "reward": 2.7
  },
  {
    "phase": "TASK",
    "condition": "Cond1",
    "trial_num": 3,
    "trial_length": 10,
    "click_num": 2,
    "RT": 1711,
    "action": 1,
    "reward": 2.8
  },
  {
    "phase": "TASK",
    "condition": "Cond1",
    "trial_num": 3,
    "trial_length": 10,
    "click_num": 3,
    "RT": 1448,
    "action": 1,
    "reward": 2.6
  },
  {
    "phase": "TASK",
    "condition": "Cond1",
    "trial_num": 3,
    "trial_length": 10,
    "click_num": 4,
    "RT": 1311,
    "action": 1,
    "reward": 2.8
  },
  {
    "phase": "TASK",
    "condition": "Cond1",
    "trial_num": 3,
    "trial_length": 10,
    "click_num": 5,
    "RT": 1218,
    "action": 1,
    "reward": 2.9
  },
  {
    "phase": "TASK",
    "condition": "Cond1",
    "trial_num": 3,
    "trial_length": 10,
    "click_num": 6,
    "RT": 1224,
    "action": 1,
    "reward": 3.5
  },
  {
    "phase": "TASK",
    "condition": "Cond1",
    "trial_num": 3,
    "trial_length": 10,
    "click_num": 7,
    "RT": 1871,
    "action": 0,
    "reward": 3.5
  },
  {
    "phase": "TASK",
    "condition": "Cond1",
    "trial_num": 3,
    "trial_length": 10,
    "click_num": 8,
    "RT": 776,
    "action": 0,
    "reward": 3.5
  },
  {
    "phase": "TASK",
    "condition": "Cond1",
    "trial_num": 3,
    "trial_length": 10,
    "click_num": 9,
    "RT": 1178,
    "action": 0,
    "reward": 3.5
  },
  {
    "phase": "TASK",
    "condition": "Cond1",
    "trial_num": 3,
    "trial_length": 10,
    "click_num": 10,
    "RT": 1358,
    "action": 0,
    "reward": 3.5
  },
  {
    "phase": "TASK",
    "condition": "Cond1",
    "trial_num": 4,
    "trial_length": 7,
    "click_num": 1,
    "RT": 2450,
    "action": 1,
    "reward": 2.5
  },
  {
    "phase": "TASK",
    "condition": "Cond1",
    "trial_num": 4,
    "trial_length": 7,
    "click_num": 2,
    "RT": 1646,
    "action": 1,
    "reward": 2.8
  },
  {
    "phase": "TASK",
    "condition": "Cond1",
    "trial_num": 4,
    "trial_length": 7,
    "click_num": 3,
    "RT": 2039,
    "action": 1,
    "reward": 2.8
  },
  {
    "phase": "TASK",
    "condition": "Cond1",
    "trial_num": 4,
    "trial_length": 7,
    "click_num": 4,
    "RT": 2896,
    "action": 1,
    "reward": 2.9
  },
  {
    "phase": "TASK",
    "condition": "Cond1",
    "trial_num": 4,
    "trial_length": 7,
    "click_num": 5,
    "RT": 1432,
    "action": 0,
    "reward": 2.9
  },
  {
    "phase": "TASK",
    "condition": "Cond1",
    "trial_num": 4,
    "trial_length": 7,
    "click_num": 6,
    "RT": 1609,
    "action": 0,
    "reward": 2.9
  },
  {
    "phase": "TASK",
    "condition": "Cond1",
    "trial_num": 4,
    "trial_length": 7,
    "click_num": 7,
    "RT": 784,
    "action": 0,
    "reward": 2.9
  },
  {
    "phase": "TASK",
    "condition": "Cond1",
    "trial_num": 5,
    "trial_length": 6,
    "click_num": 1,
    "RT": 1456,
    "action": 1,
    "reward": 2.6
  },
  {
    "phase": "TASK",
    "condition": "Cond1",
    "trial_num": 5,
    "trial_length": 6,
    "click_num": 2,
    "RT": 2024,
    "action": 1,
    "reward": 3.6
  },
  {
    "phase": "TASK",
    "condition": "Cond1",
    "trial_num": 5,
    "trial_length": 6,
    "click_num": 3,
    "RT": 1209,
    "action": 0,
    "reward": 3.6
  },
  {
    "phase": "TASK",
    "condition": "Cond1",
    "trial_num": 5,
    "trial_length": 6,
    "click_num": 4,
    "RT": 901,
    "action": 0,
    "reward": 3.6
  },
  {
    "phase": "TASK",
    "condition": "Cond1",
    "trial_num": 5,
    "trial_length": 6,
    "click_num": 5,
    "RT": 962,
    "action": 0,
    "reward": 3.6
  },
  {
    "phase": "TASK",
    "condition": "Cond1",
    "trial_num": 5,
    "trial_length": 6,
    "click_num": 6,
    "RT": 816,
    "action": 0,
    "reward": 3.6
  },
  {
    "phase": "TASK",
    "condition": "Cond1",
    "trial_num": 6,
    "trial_length": 9,
    "click_num": 1,
    "RT": 1679,
    "action": 1,
    "reward": 2.8
  },
  {
    "phase": "TASK",
    "condition": "Cond1",
    "trial_num": 6,
    "trial_length": 9,
    "click_num": 2,
    "RT": 1582,
    "action": 1,
    "reward": 2.6
  },
  {
    "phase": "TASK",
    "condition": "Cond1",
    "trial_num": 6,
    "trial_length": 9,
    "click_num": 3,
    "RT": 1168,
    "action": 1,
    "reward": 2.9
  },
  {
    "phase": "TASK",
    "condition": "Cond1",
    "trial_num": 6,
    "trial_length": 9,
    "click_num": 4,
    "RT": 1330,
    "action": 1,
    "reward": 2.4
  },
  {
    "phase": "TASK",
    "condition": "Cond1",
    "trial_num": 6,
    "trial_length": 9,
    "click_num": 5,
    "RT": 1559,
    "action": 0,
    "reward": 2.9
  },
  {
    "phase": "TASK",
    "condition": "Cond1",
    "trial_num": 6,
    "trial_length": 9,
    "click_num": 6,
    "RT": 944,
    "action": 0,
    "reward": 2.9
  },
  {
    "phase": "TASK",
    "condition": "Cond1",
    "trial_num": 6,
    "trial_length": 9,
    "click_num": 7,
    "RT": 736,
    "action": 0,
    "reward": 2.9
  },
  {
    "phase": "TASK",
    "condition": "Cond1",
    "trial_num": 6,
    "trial_length": 9,
    "click_num": 8,
    "RT": 1091,
    "action": 0,
    "reward": 2.9
  },
  {
    "phase": "TASK",
    "condition": "Cond1",
    "trial_num": 6,
    "trial_length": 9,
    "click_num": 9,
    "RT": 782,
    "action": 0,
    "reward": 2.9
  },
  {
    "phase": "TASK",
    "condition": "Cond1",
    "trial_num": 7,
    "trial_length": 6,
    "click_num": 1,
    "RT": 1574,
    "action": 1,
    "reward": 3.9
  },
  {
    "phase": "TASK",
    "condition": "Cond1",
    "trial_num": 7,
    "trial_length": 6,
    "click_num": 2,
    "RT": 1305,
    "action": 0,
    "reward": 3.9
  },
  {
    "phase": "TASK",
    "condition": "Cond1",
    "trial_num": 7,
    "trial_length": 6,
    "click_num": 3,
    "RT": 1119,
    "action": 0,
    "reward": 3.9
  },
  {
    "phase": "TASK",
    "condition": "Cond1",
    "trial_num": 7,
    "trial_length": 6,
    "click_num": 4,
    "RT": 911,
    "action": 0,
    "reward": 3.9
  },
  {
    "phase": "TASK",
    "condition": "Cond1",
    "trial_num": 7,
    "trial_length": 6,
    "click_num": 5,
    "RT": 1313,
    "action": 0,
    "reward": 3.9
  },
  {
    "phase": "TASK",
    "condition": "Cond1",
    "trial_num": 7,
    "trial_length": 6,
    "click_num": 6,
    "RT": 1082,
    "action": 0,
    "reward": 3.9
  },
  {
    "phase": "TASK",
    "condition": "Cond1",
    "trial_num": 8,
    "trial_length": 8,
    "click_num": 1,
    "RT": 2006,
    "action": 1,
    "reward": 2.5
  },
  {
    "phase": "TASK",
    "condition": "Cond1",
    "trial_num": 8,
    "trial_length": 8,
    "click_num": 2,
    "RT": 1738,
    "action": 1,
    "reward": 2.5
  },
  {
    "phase": "TASK",
    "condition": "Cond1",
    "trial_num": 8,
    "trial_length": 8,
    "click_num": 3,
    "RT": 1261,
    "action": 1,
    "reward": 3.3
  },
  {
    "phase": "TASK",
    "condition": "Cond1",
    "trial_num": 8,
    "trial_length": 8,
    "click_num": 4,
    "RT": 1353,
    "action": 0,
    "reward": 3.3
  },
  {
    "phase": "TASK",
    "condition": "Cond1",
    "trial_num": 8,
    "trial_length": 8,
    "click_num": 5,
    "RT": 727,
    "action": 0,
    "reward": 3.3
  },
  {
    "phase": "TASK",
    "condition": "Cond1",
    "trial_num": 8,
    "trial_length": 8,
    "click_num": 6,
    "RT": 760,
    "action": 0,
    "reward": 3.3
  },
  {
    "phase": "TASK",
    "condition": "Cond1",
    "trial_num": 8,
    "trial_length": 8,
    "click_num": 7,
    "RT": 695,
    "action": 0,
    "reward": 3.3
  },
  {
    "phase": "TASK",
    "condition": "Cond1",
    "trial_num": 8,
    "trial_length": 8,
    "click_num": 8,
    "RT": 729,
    "action": 0,
    "reward": 3.3
  },
  {
    "phase": "TASK",
    "condition": "Cond1",
    "trial_num": 9,
    "trial_length": 7,
    "click_num": 1,
    "RT": 1465,
    "action": 1,
    "reward": 4.1
  },
  {
    "phase": "TASK",
    "condition": "Cond1",
    "trial_num": 9,
    "trial_length": 7,
    "click_num": 2,
    "RT": 1781,
    "action": 0,
    "reward": 4.1
  },
  {
    "phase": "TASK",
    "condition": "Cond1",
    "trial_num": 9,
    "trial_length": 7,
    "click_num": 3,
    "RT": 751,
    "action": 0,
    "reward": 4.1
  },
  {
    "phase": "TASK",
    "condition": "Cond1",
    "trial_num": 9,
    "trial_length": 7,
    "click_num": 4,
    "RT": 848,
    "action": 0,
    "reward": 4.1
  },
  {
    "phase": "TASK",
    "condition": "Cond1",
    "trial_num": 9,
    "trial_length": 7,
    "click_num": 5,
    "RT": 943,
    "action": 0,
    "reward": 4.1
  },
  {
    "phase": "TASK",
    "condition": "Cond1",
    "trial_num": 9,
    "trial_length": 7,
    "click_num": 6,
    "RT": 761,
    "action": 0,
    "reward": 4.1
  },
  {
    "phase": "TASK",
    "condition": "Cond1",
    "trial_num": 9,
    "trial_length": 7,
    "click_num": 7,
    "RT": 1209,
    "action": 0,
    "reward": 4.1
  },
  {
    "phase": "TASK",
    "condition": "Cond1",
    "trial_num": 10,
    "trial_length": 8,
    "click_num": 1,
    "RT": 2334,
    "action": 1,
    "reward": 2.3
  },
  {
    "phase": "TASK",
    "condition": "Cond1",
    "trial_num": 10,
    "trial_length": 8,
    "click_num": 2,
    "RT": 1753,
    "action": 1,
    "reward": 3.9
  },
  {
    "phase": "TASK",
    "condition": "Cond1",
    "trial_num": 10,
    "trial_length": 8,
    "click_num": 3,
    "RT": 1189,
    "action": 0,
    "reward": 3.9
  },
  {
    "phase": "TASK",
    "condition": "Cond1",
    "trial_num": 10,
    "trial_length": 8,
    "click_num": 4,
    "RT": 1001,
    "action": 0,
    "reward": 3.9
  },
  {
    "phase": "TASK",
    "condition": "Cond1",
    "trial_num": 10,
    "trial_length": 8,
    "click_num": 5,
    "RT": 665,
    "action": 0,
    "reward": 3.9
  },
  {
    "phase": "TASK",
    "condition": "Cond1",
    "trial_num": 10,
    "trial_length": 8,
    "click_num": 6,
    "RT": 775,
    "action": 0,
    "reward": 3.9
  },
  {
    "phase": "TASK",
    "condition": "Cond1",
    "trial_num": 10,
    "trial_length": 8,
    "click_num": 7,
    "RT": 872,
    "action": 0,
    "reward": 3.9
  },
  {
    "phase": "TASK",
    "condition": "Cond1",
    "trial_num": 10,
    "trial_length": 8,
    "click_num": 8,
    "RT": 680,
    "action": 0,
    "reward": 3.9
  },
  {
    "phase": "TASK",
    "condition": "Cond1",
    "trial_num": 11,
    "trial_length": 6,
    "click_num": 1,
    "RT": 1445,
    "action": 1,
    "reward": 1.5
  },
  {
    "phase": "TASK",
    "condition": "Cond1",
    "trial_num": 11,
    "trial_length": 6,
    "click_num": 2,
    "RT": 1409,
    "action": 1,
    "reward": 2.9
  },
  {
    "phase": "TASK",
    "condition": "Cond1",
    "trial_num": 11,
    "trial_length": 6,
    "click_num": 3,
    "RT": 1473,
    "action": 1,
    "reward": 3
  },
  {
    "phase": "TASK",
    "condition": "Cond1",
    "trial_num": 11,
    "trial_length": 6,
    "click_num": 4,
    "RT": 1263,
    "action": 0,
    "reward": 3
  },
  {
    "phase": "TASK",
    "condition": "Cond1",
    "trial_num": 11,
    "trial_length": 6,
    "click_num": 5,
    "RT": 641,
    "action": 0,
    "reward": 3
  },
  {
    "phase": "TASK",
    "condition": "Cond1",
    "trial_num": 11,
    "trial_length": 6,
    "click_num": 6,
    "RT": 871,
    "action": 0,
    "reward": 3
  },
  {
    "phase": "TASK",
    "condition": "Cond1",
    "trial_num": 12,
    "trial_length": 7,
    "click_num": 1,
    "RT": 1514,
    "action": 1,
    "reward": 2.6
  },
  {
    "phase": "TASK",
    "condition": "Cond1",
    "trial_num": 12,
    "trial_length": 7,
    "click_num": 2,
    "RT": 1415,
    "action": 1,
    "reward": 3.1
  },
  {
    "phase": "TASK",
    "condition": "Cond1",
    "trial_num": 12,
    "trial_length": 7,
    "click_num": 3,
    "RT": 1297,
    "action": 0,
    "reward": 3.1
  },
  {
    "phase": "TASK",
    "condition": "Cond1",
    "trial_num": 12,
    "trial_length": 7,
    "click_num": 4,
    "RT": 663,
    "action": 0,
    "reward": 3.1
  },
  {
    "phase": "TASK",
    "condition": "Cond1",
    "trial_num": 12,
    "trial_length": 7,
    "click_num": 5,
    "RT": 750,
    "action": 0,
    "reward": 3.1
  },
  {
    "phase": "TASK",
    "condition": "Cond1",
    "trial_num": 12,
    "trial_length": 7,
    "click_num": 6,
    "RT": 714,
    "action": 0,
    "reward": 3.1
  },
  {
    "phase": "TASK",
    "condition": "Cond1",
    "trial_num": 12,
    "trial_length": 7,
    "click_num": 7,
    "RT": 992,
    "action": 0,
    "reward": 3.1
  },
  {
    "phase": "TASK",
    "condition": "Cond1",
    "trial_num": 13,
    "trial_length": 6,
    "click_num": 1,
    "RT": 1240,
    "action": 1,
    "reward": 3.7
  },
  {
    "phase": "TASK",
    "condition": "Cond1",
    "trial_num": 13,
    "trial_length": 6,
    "click_num": 2,
    "RT": 1173,
    "action": 0,
    "reward": 3.7
  },
  {
    "phase": "TASK",
    "condition": "Cond1",
    "trial_num": 13,
    "trial_length": 6,
    "click_num": 3,
    "RT": 728,
    "action": 0,
    "reward": 3.7
  },
  {
    "phase": "TASK",
    "condition": "Cond1",
    "trial_num": 13,
    "trial_length": 6,
    "click_num": 4,
    "RT": 656,
    "action": 0,
    "reward": 3.7
  },
  {
    "phase": "TASK",
    "condition": "Cond1",
    "trial_num": 13,
    "trial_length": 6,
    "click_num": 5,
    "RT": 699,
    "action": 0,
    "reward": 3.7
  },
  {
    "phase": "TASK",
    "condition": "Cond1",
    "trial_num": 13,
    "trial_length": 6,
    "click_num": 6,
    "RT": 1037,
    "action": 0,
    "reward": 3.7
  },
  {
    "phase": "TASK",
    "condition": "Cond1",
    "trial_num": 14,
    "trial_length": 7,
    "click_num": 1,
    "RT": 1192,
    "action": 1,
    "reward": 3
  },
  {
    "phase": "TASK",
    "condition": "Cond1",
    "trial_num": 14,
    "trial_length": 7,
    "click_num": 2,
    "RT": 1576,
    "action": 1,
    "reward": 2.4
  },
  {
    "phase": "TASK",
    "condition": "Cond1",
    "trial_num": 14,
    "trial_length": 7,
    "click_num": 3,
    "RT": 1016,
    "action": 0,
    "reward": 3
  },
  {
    "phase": "TASK",
    "condition": "Cond1",
    "trial_num": 14,
    "trial_length": 7,
    "click_num": 4,
    "RT": 1537,
    "action": 0,
    "reward": 3
  },
  {
    "phase": "TASK",
    "condition": "Cond1",
    "trial_num": 14,
    "trial_length": 7,
    "click_num": 5,
    "RT": 671,
    "action": 0,
    "reward": 3
  },
  {
    "phase": "TASK",
    "condition": "Cond1",
    "trial_num": 14,
    "trial_length": 7,
    "click_num": 6,
    "RT": 752,
    "action": 0,
    "reward": 3
  },
  {
    "phase": "TASK",
    "condition": "Cond1",
    "trial_num": 14,
    "trial_length": 7,
    "click_num": 7,
    "RT": 727,
    "action": 0,
    "reward": 3
  },
  {
    "phase": "TASK",
    "condition": "Cond1",
    "trial_num": 15,
    "trial_length": 6,
    "click_num": 1,
    "RT": 1230,
    "action": 1,
    "reward": 2.4
  },
  {
    "phase": "TASK",
    "condition": "Cond1",
    "trial_num": 15,
    "trial_length": 6,
    "click_num": 2,
    "RT": 1695,
    "action": 1,
    "reward": 1.9
  },
  {
    "phase": "TASK",
    "condition": "Cond1",
    "trial_num": 15,
    "trial_length": 6,
    "click_num": 3,
    "RT": 1192,
    "action": 1,
    "reward": 3.7
  },
  {
    "phase": "TASK",
    "condition": "Cond1",
    "trial_num": 15,
    "trial_length": 6,
    "click_num": 4,
    "RT": 1090,
    "action": 0,
    "reward": 3.7
  },
  {
    "phase": "TASK",
    "condition": "Cond1",
    "trial_num": 15,
    "trial_length": 6,
    "click_num": 5,
    "RT": 798,
    "action": 0,
    "reward": 3.7
  },
  {
    "phase": "TASK",
    "condition": "Cond1",
    "trial_num": 15,
    "trial_length": 6,
    "click_num": 6,
    "RT": 704,
    "action": 0,
    "reward": 3.7
  },
  {
    "phase": "TASK",
    "condition": "Cond1",
    "trial_num": 16,
    "trial_length": 6,
    "click_num": 1,
    "RT": 2222,
    "action": 1,
    "reward": 2.6
  },
  {
    "phase": "TASK",
    "condition": "Cond1",
    "trial_num": 16,
    "trial_length": 6,
    "click_num": 2,
    "RT": 1896,
    "action": 1,
    "reward": 3.4
  },
  {
    "phase": "TASK",
    "condition": "Cond1",
    "trial_num": 16,
    "trial_length": 6,
    "click_num": 3,
    "RT": 1520,
    "action": 0,
    "reward": 3.4
  },
  {
    "phase": "TASK",
    "condition": "Cond1",
    "trial_num": 16,
    "trial_length": 6,
    "click_num": 4,
    "RT": 943,
    "action": 0,
    "reward": 3.4
  },
  {
    "phase": "TASK",
    "condition": "Cond1",
    "trial_num": 16,
    "trial_length": 6,
    "click_num": 5,
    "RT": 662,
    "action": 0,
    "reward": 3.4
  },
  {
    "phase": "TASK",
    "condition": "Cond1",
    "trial_num": 16,
    "trial_length": 6,
    "click_num": 6,
    "RT": 771,
    "action": 0,
    "reward": 3.4
  },
  {
    "phase": "TASK",
    "condition": "Cond1",
    "trial_num": 17,
    "trial_length": 5,
    "click_num": 1,
    "RT": 1726,
    "action": 1,
    "reward": 4.3
  },
  {
    "phase": "TASK",
    "condition": "Cond1",
    "trial_num": 17,
    "trial_length": 5,
    "click_num": 2,
    "RT": 1288,
    "action": 0,
    "reward": 4.3
  },
  {
    "phase": "TASK",
    "condition": "Cond1",
    "trial_num": 17,
    "trial_length": 5,
    "click_num": 3,
    "RT": 1040,
    "action": 0,
    "reward": 4.3
  },
  {
    "phase": "TASK",
    "condition": "Cond1",
    "trial_num": 17,
    "trial_length": 5,
    "click_num": 4,
    "RT": 736,
    "action": 0,
    "reward": 4.3
  },
  {
    "phase": "TASK",
    "condition": "Cond1",
    "trial_num": 17,
    "trial_length": 5,
    "click_num": 5,
    "RT": 878,
    "action": 0,
    "reward": 4.3
  },
  {
    "phase": "TASK",
    "condition": "Cond1",
    "trial_num": 18,
    "trial_length": 6,
    "click_num": 1,
    "RT": 1232,
    "action": 1,
    "reward": 2.7
  },
  {
    "phase": "TASK",
    "condition": "Cond1",
    "trial_num": 18,
    "trial_length": 6,
    "click_num": 2,
    "RT": 1424,
    "action": 1,
    "reward": 4.5
  },
  {
    "phase": "TASK",
    "condition": "Cond1",
    "trial_num": 18,
    "trial_length": 6,
    "click_num": 3,
    "RT": 1039,
    "action": 0,
    "reward": 4.5
  },
  {
    "phase": "TASK",
    "condition": "Cond1",
    "trial_num": 18,
    "trial_length": 6,
    "click_num": 4,
    "RT": 680,
    "action": 0,
    "reward": 4.5
  },
  {
    "phase": "TASK",
    "condition": "Cond1",
    "trial_num": 18,
    "trial_length": 6,
    "click_num": 5,
    "RT": 707,
    "action": 0,
    "reward": 4.5
  },
  {
    "phase": "TASK",
    "condition": "Cond1",
    "trial_num": 18,
    "trial_length": 6,
    "click_num": 6,
    "RT": 758,
    "action": 0,
    "reward": 4.5
  },
  {
    "phase": "TASK",
    "condition": "Cond1",
    "trial_num": 19,
    "trial_length": 8,
    "click_num": 1,
    "RT": 1790,
    "action": 1,
    "reward": 3.6
  },
  {
    "phase": "TASK",
    "condition": "Cond1",
    "trial_num": 19,
    "trial_length": 8,
    "click_num": 2,
    "RT": 1112,
    "action": 0,
    "reward": 3.6
  },
  {
    "phase": "TASK",
    "condition": "Cond1",
    "trial_num": 19,
    "trial_length": 8,
    "click_num": 3,
    "RT": 743,
    "action": 0,
    "reward": 3.6
  },
  {
    "phase": "TASK",
    "condition": "Cond1",
    "trial_num": 19,
    "trial_length": 8,
    "click_num": 4,
    "RT": 729,
    "action": 0,
    "reward": 3.6
  },
  {
    "phase": "TASK",
    "condition": "Cond1",
    "trial_num": 19,
    "trial_length": 8,
    "click_num": 5,
    "RT": 720,
    "action": 0,
    "reward": 3.6
  },
  {
    "phase": "TASK",
    "condition": "Cond1",
    "trial_num": 19,
    "trial_length": 8,
    "click_num": 6,
    "RT": 693,
    "action": 0,
    "reward": 3.6
  },
  {
    "phase": "TASK",
    "condition": "Cond1",
    "trial_num": 19,
    "trial_length": 8,
    "click_num": 7,
    "RT": 659,
    "action": 0,
    "reward": 3.6
  },
  {
    "phase": "TASK",
    "condition": "Cond1",
    "trial_num": 19,
    "trial_length": 8,
    "click_num": 8,
    "RT": 631,
    "action": 0,
    "reward": 3.6
  },
  {
    "phase": "TASK",
    "condition": "Cond1",
    "trial_num": 20,
    "trial_length": 7,
    "click_num": 1,
    "RT": 1352,
    "action": 1,
    "reward": 2.4
  },
  {
    "phase": "TASK",
    "condition": "Cond1",
    "trial_num": 20,
    "trial_length": 7,
    "click_num": 2,
    "RT": 1279,
    "action": 1,
    "reward": 3
  },
  {
    "phase": "TASK",
    "condition": "Cond1",
    "trial_num": 20,
    "trial_length": 7,
    "click_num": 3,
    "RT": 1056,
    "action": 0,
    "reward": 3
  },
  {
    "phase": "TASK",
    "condition": "Cond1",
    "trial_num": 20,
    "trial_length": 7,
    "click_num": 4,
    "RT": 1019,
    "action": 0,
    "reward": 3
  },
  {
    "phase": "TASK",
    "condition": "Cond1",
    "trial_num": 20,
    "trial_length": 7,
    "click_num": 5,
    "RT": 678,
    "action": 0,
    "reward": 3
  },
  {
    "phase": "TASK",
    "condition": "Cond1",
    "trial_num": 20,
    "trial_length": 7,
    "click_num": 6,
    "RT": 926,
    "action": 0,
    "reward": 3
  },
  {
    "phase": "TASK",
    "condition": "Cond1",
    "trial_num": 20,
    "trial_length": 7,
    "click_num": 7,
    "RT": 1233,
    "action": 0,
    "reward": 3
  },
  {
    "phase": "TASK",
    "condition": "Cond1",
    "trial_num": 21,
    "trial_length": 5,
    "click_num": 1,
    "RT": 1253,
    "action": 1,
    "reward": 3.3
  },
  {
    "phase": "TASK",
    "condition": "Cond1",
    "trial_num": 21,
    "trial_length": 5,
    "click_num": 2,
    "RT": 1929,
    "action": 0,
    "reward": 3.3
  },
  {
    "phase": "TASK",
    "condition": "Cond1",
    "trial_num": 21,
    "trial_length": 5,
    "click_num": 3,
    "RT": 951,
    "action": 0,
    "reward": 3.3
  },
  {
    "phase": "TASK",
    "condition": "Cond1",
    "trial_num": 21,
    "trial_length": 5,
    "click_num": 4,
    "RT": 760,
    "action": 0,
    "reward": 3.3
  },
  {
    "phase": "TASK",
    "condition": "Cond1",
    "trial_num": 21,
    "trial_length": 5,
    "click_num": 5,
    "RT": 758,
    "action": 0,
    "reward": 3.3
  },
  {
    "phase": "TASK",
    "condition": "Cond1",
    "trial_num": 22,
    "trial_length": 9,
    "click_num": 1,
    "RT": 1488,
    "action": 1,
    "reward": 2.8
  },
  {
    "phase": "TASK",
    "condition": "Cond1",
    "trial_num": 22,
    "trial_length": 9,
    "click_num": 2,
    "RT": 1287,
    "action": 1,
    "reward": 2.7
  },
  {
    "phase": "TASK",
    "condition": "Cond1",
    "trial_num": 22,
    "trial_length": 9,
    "click_num": 3,
    "RT": 1329,
    "action": 1,
    "reward": 3.5
  },
  {
    "phase": "TASK",
    "condition": "Cond1",
    "trial_num": 22,
    "trial_length": 9,
    "click_num": 4,
    "RT": 1391,
    "action": 0,
    "reward": 3.5
  },
  {
    "phase": "TASK",
    "condition": "Cond1",
    "trial_num": 22,
    "trial_length": 9,
    "click_num": 5,
    "RT": 776,
    "action": 0,
    "reward": 3.5
  },
  {
    "phase": "TASK",
    "condition": "Cond1",
    "trial_num": 22,
    "trial_length": 9,
    "click_num": 6,
    "RT": 704,
    "action": 0,
    "reward": 3.5
  },
  {
    "phase": "TASK",
    "condition": "Cond1",
    "trial_num": 22,
    "trial_length": 9,
    "click_num": 7,
    "RT": 744,
    "action": 0,
    "reward": 3.5
  },
  {
    "phase": "TASK",
    "condition": "Cond1",
    "trial_num": 22,
    "trial_length": 9,
    "click_num": 8,
    "RT": 697,
    "action": 0,
    "reward": 3.5
  },
  {
    "phase": "TASK",
    "condition": "Cond1",
    "trial_num": 22,
    "trial_length": 9,
    "click_num": 9,
    "RT": 743,
    "action": 0,
    "reward": 3.5
  },
  {
    "phase": "TASK",
    "condition": "Cond1",
    "trial_num": 23,
    "trial_length": 9,
    "click_num": 1,
    "RT": 1334,
    "action": 1,
    "reward": 3.5
  },
  {
    "phase": "TASK",
    "condition": "Cond1",
    "trial_num": 23,
    "trial_length": 9,
    "click_num": 2,
    "RT": 1481,
    "action": 0,
    "reward": 3.5
  },
  {
    "phase": "TASK",
    "condition": "Cond1",
    "trial_num": 23,
    "trial_length": 9,
    "click_num": 3,
    "RT": 687,
    "action": 0,
    "reward": 3.5
  },
  {
    "phase": "TASK",
    "condition": "Cond1",
    "trial_num": 23,
    "trial_length": 9,
    "click_num": 4,
    "RT": 694,
    "action": 0,
    "reward": 3.5
  },
  {
    "phase": "TASK",
    "condition": "Cond1",
    "trial_num": 23,
    "trial_length": 9,
    "click_num": 5,
    "RT": 674,
    "action": 0,
    "reward": 3.5
  },
  {
    "phase": "TASK",
    "condition": "Cond1",
    "trial_num": 23,
    "trial_length": 9,
    "click_num": 6,
    "RT": 726,
    "action": 0,
    "reward": 3.5
  },
  {
    "phase": "TASK",
    "condition": "Cond1",
    "trial_num": 23,
    "trial_length": 9,
    "click_num": 7,
    "RT": 657,
    "action": 0,
    "reward": 3.5
  },
  {
    "phase": "TASK",
    "condition": "Cond1",
    "trial_num": 23,
    "trial_length": 9,
    "click_num": 8,
    "RT": 668,
    "action": 0,
    "reward": 3.5
  },
  {
    "phase": "TASK",
    "condition": "Cond1",
    "trial_num": 23,
    "trial_length": 9,
    "click_num": 9,
    "RT": 677,
    "action": 0,
    "reward": 3.5
  },
  {
    "phase": "TASK",
    "condition": "Cond1",
    "trial_num": 24,
    "trial_length": 6,
    "click_num": 1,
    "RT": 1246,
    "action": 1,
    "reward": 3.6
  },
  {
    "phase": "TASK",
    "condition": "Cond1",
    "trial_num": 24,
    "trial_length": 6,
    "click_num": 2,
    "RT": 1319,
    "action": 0,
    "reward": 3.6
  },
  {
    "phase": "TASK",
    "condition": "Cond1",
    "trial_num": 24,
    "trial_length": 6,
    "click_num": 3,
    "RT": 672,
    "action": 0,
    "reward": 3.6
  },
  {
    "phase": "TASK",
    "condition": "Cond1",
    "trial_num": 24,
    "trial_length": 6,
    "click_num": 4,
    "RT": 696,
    "action": 0,
    "reward": 3.6
  },
  {
    "phase": "TASK",
    "condition": "Cond1",
    "trial_num": 24,
    "trial_length": 6,
    "click_num": 5,
    "RT": 945,
    "action": 0,
    "reward": 3.6
  },
  {
    "phase": "TASK",
    "condition": "Cond1",
    "trial_num": 24,
    "trial_length": 6,
    "click_num": 6,
    "RT": 680,
    "action": 0,
    "reward": 3.6
  },
  {
    "phase": "TASK",
    "condition": "Cond1",
    "trial_num": 25,
    "trial_length": 10,
    "click_num": 1,
    "RT": 1658,
    "action": 1,
    "reward": 2.9
  },
  {
    "phase": "TASK",
    "condition": "Cond1",
    "trial_num": 25,
    "trial_length": 10,
    "click_num": 2,
    "RT": 1277,
    "action": 0,
    "reward": 2.9
  },
  {
    "phase": "TASK",
    "condition": "Cond1",
    "trial_num": 25,
    "trial_length": 10,
    "click_num": 3,
    "RT": 1192,
    "action": 0,
    "reward": 2.9
  },
  {
    "phase": "TASK",
    "condition": "Cond1",
    "trial_num": 25,
    "trial_length": 10,
    "click_num": 4,
    "RT": 1168,
    "action": 0,
    "reward": 2.9
  },
  {
    "phase": "TASK",
    "condition": "Cond1",
    "trial_num": 25,
    "trial_length": 10,
    "click_num": 5,
    "RT": 1174,
    "action": 0,
    "reward": 2.9
  },
  {
    "phase": "TASK",
    "condition": "Cond1",
    "trial_num": 25,
    "trial_length": 10,
    "click_num": 6,
    "RT": 1314,
    "action": 0,
    "reward": 2.9
  },
  {
    "phase": "TASK",
    "condition": "Cond1",
    "trial_num": 25,
    "trial_length": 10,
    "click_num": 7,
    "RT": 1768,
    "action": 1,
    "reward": 3.7
  },
  {
    "phase": "TASK",
    "condition": "Cond1",
    "trial_num": 25,
    "trial_length": 10,
    "click_num": 8,
    "RT": 1408,
    "action": 0,
    "reward": 3.7
  },
  {
    "phase": "TASK",
    "condition": "Cond1",
    "trial_num": 25,
    "trial_length": 10,
    "click_num": 9,
    "RT": 1111,
    "action": 0,
    "reward": 3.7
  },
  {
    "phase": "TASK",
    "condition": "Cond1",
    "trial_num": 25,
    "trial_length": 10,
    "click_num": 10,
    "RT": 692,
    "action": 0,
    "reward": 3.7
  },
  {
    "phase": "TASK",
    "condition": "Cond1",
    "trial_num": 26,
    "trial_length": 7,
    "click_num": 1,
    "RT": 1523,
    "action": 1,
    "reward": 2.8
  },
  {
    "phase": "TASK",
    "condition": "Cond1",
    "trial_num": 26,
    "trial_length": 7,
    "click_num": 2,
    "RT": 1923,
    "action": 1,
    "reward": 3.1
  },
  {
    "phase": "TASK",
    "condition": "Cond1",
    "trial_num": 26,
    "trial_length": 7,
    "click_num": 3,
    "RT": 3287,
    "action": 0,
    "reward": 3.1
  },
  {
    "phase": "TASK",
    "condition": "Cond1",
    "trial_num": 26,
    "trial_length": 7,
    "click_num": 4,
    "RT": 672,
    "action": 0,
    "reward": 3.1
  },
  {
    "phase": "TASK",
    "condition": "Cond1",
    "trial_num": 26,
    "trial_length": 7,
    "click_num": 5,
    "RT": 688,
    "action": 0,
    "reward": 3.1
  },
  {
    "phase": "TASK",
    "condition": "Cond1",
    "trial_num": 26,
    "trial_length": 7,
    "click_num": 6,
    "RT": 720,
    "action": 0,
    "reward": 3.1
  },
  {
    "phase": "TASK",
    "condition": "Cond1",
    "trial_num": 26,
    "trial_length": 7,
    "click_num": 7,
    "RT": 816,
    "action": 0,
    "reward": 3.1
  },
  {
    "phase": "TASK",
    "condition": "Cond1",
    "trial_num": 27,
    "trial_length": 10,
    "click_num": 1,
    "RT": 2527,
    "action": 1,
    "reward": 3.8
  },
  {
    "phase": "TASK",
    "condition": "Cond1",
    "trial_num": 27,
    "trial_length": 10,
    "click_num": 2,
    "RT": 1151,
    "action": 0,
    "reward": 3.8
  },
  {
    "phase": "TASK",
    "condition": "Cond1",
    "trial_num": 27,
    "trial_length": 10,
    "click_num": 3,
    "RT": 673,
    "action": 0,
    "reward": 3.8
  },
  {
    "phase": "TASK",
    "condition": "Cond1",
    "trial_num": 27,
    "trial_length": 10,
    "click_num": 4,
    "RT": 704,
    "action": 0,
    "reward": 3.8
  },
  {
    "phase": "TASK",
    "condition": "Cond1",
    "trial_num": 27,
    "trial_length": 10,
    "click_num": 5,
    "RT": 712,
    "action": 0,
    "reward": 3.8
  },
  {
    "phase": "TASK",
    "condition": "Cond1",
    "trial_num": 27,
    "trial_length": 10,
    "click_num": 6,
    "RT": 670,
    "action": 0,
    "reward": 3.8
  },
  {
    "phase": "TASK",
    "condition": "Cond1",
    "trial_num": 27,
    "trial_length": 10,
    "click_num": 7,
    "RT": 722,
    "action": 0,
    "reward": 3.8
  },
  {
    "phase": "TASK",
    "condition": "Cond1",
    "trial_num": 27,
    "trial_length": 10,
    "click_num": 8,
    "RT": 704,
    "action": 0,
    "reward": 3.8
  },
  {
    "phase": "TASK",
    "condition": "Cond1",
    "trial_num": 27,
    "trial_length": 10,
    "click_num": 9,
    "RT": 719,
    "action": 0,
    "reward": 3.8
  },
  {
    "phase": "TASK",
    "condition": "Cond1",
    "trial_num": 27,
    "trial_length": 10,
    "click_num": 10,
    "RT": 1752,
    "action": 0,
    "reward": 3.8
  },
  {
    "phase": "TASK",
    "condition": "Cond1",
    "trial_num": 28,
    "trial_length": 6,
    "click_num": 1,
    "RT": 1448,
    "action": 1,
    "reward": 2.3
  },
  {
    "phase": "TASK",
    "condition": "Cond1",
    "trial_num": 28,
    "trial_length": 6,
    "click_num": 2,
    "RT": 2472,
    "action": 1,
    "reward": 2
  },
  {
    "phase": "TASK",
    "condition": "Cond1",
    "trial_num": 28,
    "trial_length": 6,
    "click_num": 3,
    "RT": 1511,
    "action": 1,
    "reward": 2.4
  },
  {
    "phase": "TASK",
    "condition": "Cond1",
    "trial_num": 28,
    "trial_length": 6,
    "click_num": 4,
    "RT": 1241,
    "action": 1,
    "reward": 2.6
  },
  {
    "phase": "TASK",
    "condition": "Cond1",
    "trial_num": 28,
    "trial_length": 6,
    "click_num": 5,
    "RT": 1447,
    "action": 1,
    "reward": 2
  },
  {
    "phase": "TASK",
    "condition": "Cond1",
    "trial_num": 28,
    "trial_length": 6,
    "click_num": 6,
    "RT": 1488,
    "action": 1,
    "reward": 3.3
  },
  {
    "phase": "TASK",
    "condition": "Cond1",
    "trial_num": 29,
    "trial_length": 8,
    "click_num": 1,
    "RT": 1616,
    "action": 1,
    "reward": 2.1
  },
  {
    "phase": "TASK",
    "condition": "Cond1",
    "trial_num": 29,
    "trial_length": 8,
    "click_num": 2,
    "RT": 1444,
    "action": 1,
    "reward": 2.6
  },
  {
    "phase": "TASK",
    "condition": "Cond1",
    "trial_num": 29,
    "trial_length": 8,
    "click_num": 3,
    "RT": 1349,
    "action": 1,
    "reward": 3.3
  },
  {
    "phase": "TASK",
    "condition": "Cond1",
    "trial_num": 29,
    "trial_length": 8,
    "click_num": 4,
    "RT": 1840,
    "action": 0,
    "reward": 3.3
  },
  {
    "phase": "TASK",
    "condition": "Cond1",
    "trial_num": 29,
    "trial_length": 8,
    "click_num": 5,
    "RT": 714,
    "action": 0,
    "reward": 3.3
  },
  {
    "phase": "TASK",
    "condition": "Cond1",
    "trial_num": 29,
    "trial_length": 8,
    "click_num": 6,
    "RT": 636,
    "action": 0,
    "reward": 3.3
  },
  {
    "phase": "TASK",
    "condition": "Cond1",
    "trial_num": 29,
    "trial_length": 8,
    "click_num": 7,
    "RT": 658,
    "action": 0,
    "reward": 3.3
  },
  {
    "phase": "TASK",
    "condition": "Cond1",
    "trial_num": 29,
    "trial_length": 8,
    "click_num": 8,
    "RT": 671,
    "action": 0,
    "reward": 3.3
  },
  {
    "phase": "TASK",
    "condition": "Cond1",
    "trial_num": 30,
    "trial_length": 5,
    "click_num": 1,
    "RT": 1597,
    "action": 1,
    "reward": 2.7
  },
  {
    "phase": "TASK",
    "condition": "Cond1",
    "trial_num": 30,
    "trial_length": 5,
    "click_num": 2,
    "RT": 1191,
    "action": 1,
    "reward": 3.4
  },
  {
    "phase": "TASK",
    "condition": "Cond1",
    "trial_num": 30,
    "trial_length": 5,
    "click_num": 3,
    "RT": 1082,
    "action": 0,
    "reward": 3.4
  },
  {
    "phase": "TASK",
    "condition": "Cond1",
    "trial_num": 30,
    "trial_length": 5,
    "click_num": 4,
    "RT": 1087,
    "action": 0,
    "reward": 3.4
  },
  {
    "phase": "TASK",
    "condition": "Cond1",
    "trial_num": 30,
    "trial_length": 5,
    "click_num": 5,
    "RT": 624,
    "action": 0,
    "reward": 3.4
  },
  {
    "phase": "TASK",
    "condition": "Cond1",
    "trial_num": 31,
    "trial_length": 5,
    "click_num": 1,
    "RT": 1209,
    "action": 1,
    "reward": 2.4
  },
  {
    "phase": "TASK",
    "condition": "Cond1",
    "trial_num": 31,
    "trial_length": 5,
    "click_num": 2,
    "RT": 1327,
    "action": 1,
    "reward": 2.7
  },
  {
    "phase": "TASK",
    "condition": "Cond1",
    "trial_num": 31,
    "trial_length": 5,
    "click_num": 3,
    "RT": 1488,
    "action": 1,
    "reward": 3.6
  },
  {
    "phase": "TASK",
    "condition": "Cond1",
    "trial_num": 31,
    "trial_length": 5,
    "click_num": 4,
    "RT": 1715,
    "action": 0,
    "reward": 3.6
  },
  {
    "phase": "TASK",
    "condition": "Cond1",
    "trial_num": 31,
    "trial_length": 5,
    "click_num": 5,
    "RT": 694,
    "action": 0,
    "reward": 3.6
  },
  {
    "phase": "TASK",
    "condition": "Cond1",
    "trial_num": 32,
    "trial_length": 5,
    "click_num": 1,
    "RT": 1263,
    "action": 1,
    "reward": 2.6
  },
  {
    "phase": "TASK",
    "condition": "Cond1",
    "trial_num": 32,
    "trial_length": 5,
    "click_num": 2,
    "RT": 1336,
    "action": 1,
    "reward": 3.3
  },
  {
    "phase": "TASK",
    "condition": "Cond1",
    "trial_num": 32,
    "trial_length": 5,
    "click_num": 3,
    "RT": 1112,
    "action": 0,
    "reward": 3.3
  },
  {
    "phase": "TASK",
    "condition": "Cond1",
    "trial_num": 32,
    "trial_length": 5,
    "click_num": 4,
    "RT": 815,
    "action": 0,
    "reward": 3.3
  },
  {
    "phase": "TASK",
    "condition": "Cond1",
    "trial_num": 32,
    "trial_length": 5,
    "click_num": 5,
    "RT": 697,
    "action": 0,
    "reward": 3.3
  },
  {
    "phase": "TASK",
    "condition": "Cond1",
    "trial_num": 33,
    "trial_length": 9,
    "click_num": 1,
    "RT": 1513,
    "action": 1,
    "reward": 3.6
  },
  {
    "phase": "TASK",
    "condition": "Cond1",
    "trial_num": 33,
    "trial_length": 9,
    "click_num": 2,
    "RT": 1645,
    "action": 0,
    "reward": 3.6
  },
  {
    "phase": "TASK",
    "condition": "Cond1",
    "trial_num": 33,
    "trial_length": 9,
    "click_num": 3,
    "RT": 1072,
    "action": 0,
    "reward": 3.6
  },
  {
    "phase": "TASK",
    "condition": "Cond1",
    "trial_num": 33,
    "trial_length": 9,
    "click_num": 4,
    "RT": 999,
    "action": 0,
    "reward": 3.6
  },
  {
    "phase": "TASK",
    "condition": "Cond1",
    "trial_num": 33,
    "trial_length": 9,
    "click_num": 5,
    "RT": 825,
    "action": 0,
    "reward": 3.6
  },
  {
    "phase": "TASK",
    "condition": "Cond1",
    "trial_num": 33,
    "trial_length": 9,
    "click_num": 6,
    "RT": 1792,
    "action": 0,
    "reward": 3.6
  },
  {
    "phase": "TASK",
    "condition": "Cond1",
    "trial_num": 33,
    "trial_length": 9,
    "click_num": 7,
    "RT": 719,
    "action": 0,
    "reward": 3.6
  },
  {
    "phase": "TASK",
    "condition": "Cond1",
    "trial_num": 33,
    "trial_length": 9,
    "click_num": 8,
    "RT": 1048,
    "action": 0,
    "reward": 3.6
  },
  {
    "phase": "TASK",
    "condition": "Cond1",
    "trial_num": 33,
    "trial_length": 9,
    "click_num": 9,
    "RT": 1000,
    "action": 0,
    "reward": 3.6
  },
  {
    "phase": "TASK",
    "condition": "Cond1",
    "trial_num": 34,
    "trial_length": 10,
    "click_num": 1,
    "RT": 1251,
    "action": 1,
    "reward": 3.8
  },
  {
    "phase": "TASK",
    "condition": "Cond1",
    "trial_num": 34,
    "trial_length": 10,
    "click_num": 2,
    "RT": 1240,
    "action": 0,
    "reward": 3.8
  },
  {
    "phase": "TASK",
    "condition": "Cond1",
    "trial_num": 34,
    "trial_length": 10,
    "click_num": 3,
    "RT": 2384,
    "action": 0,
    "reward": 3.8
  },
  {
    "phase": "TASK",
    "condition": "Cond1",
    "trial_num": 34,
    "trial_length": 10,
    "click_num": 4,
    "RT": 745,
    "action": 0,
    "reward": 3.8
  },
  {
    "phase": "TASK",
    "condition": "Cond1",
    "trial_num": 34,
    "trial_length": 10,
    "click_num": 5,
    "RT": 776,
    "action": 0,
    "reward": 3.8
  },
  {
    "phase": "TASK",
    "condition": "Cond1",
    "trial_num": 34,
    "trial_length": 10,
    "click_num": 6,
    "RT": 743,
    "action": 0,
    "reward": 3.8
  },
  {
    "phase": "TASK",
    "condition": "Cond1",
    "trial_num": 34,
    "trial_length": 10,
    "click_num": 7,
    "RT": 848,
    "action": 0,
    "reward": 3.8
  },
  {
    "phase": "TASK",
    "condition": "Cond1",
    "trial_num": 34,
    "trial_length": 10,
    "click_num": 8,
    "RT": 688,
    "action": 0,
    "reward": 3.8
  },
  {
    "phase": "TASK",
    "condition": "Cond1",
    "trial_num": 34,
    "trial_length": 10,
    "click_num": 9,
    "RT": 1119,
    "action": 0,
    "reward": 3.8
  },
  {
    "phase": "TASK",
    "condition": "Cond1",
    "trial_num": 34,
    "trial_length": 10,
    "click_num": 10,
    "RT": 762,
    "action": 0,
    "reward": 3.8
  },
  {
    "phase": "TASK",
    "condition": "Cond1",
    "trial_num": 35,
    "trial_length": 5,
    "click_num": 1,
    "RT": 2902,
    "action": 1,
    "reward": 3.1
  },
  {
    "phase": "TASK",
    "condition": "Cond1",
    "trial_num": 35,
    "trial_length": 5,
    "click_num": 2,
    "RT": 1559,
    "action": 0,
    "reward": 3.1
  },
  {
    "phase": "TASK",
    "condition": "Cond1",
    "trial_num": 35,
    "trial_length": 5,
    "click_num": 3,
    "RT": 1182,
    "action": 0,
    "reward": 3.1
  },
  {
    "phase": "TASK",
    "condition": "Cond1",
    "trial_num": 35,
    "trial_length": 5,
    "click_num": 4,
    "RT": 1165,
    "action": 0,
    "reward": 3.1
  },
  {
    "phase": "TASK",
    "condition": "Cond1",
    "trial_num": 35,
    "trial_length": 5,
    "click_num": 5,
    "RT": 726,
    "action": 0,
    "reward": 3.1
  },
  {
    "phase": "TASK",
    "condition": "Cond1",
    "trial_num": 36,
    "trial_length": 6,
    "click_num": 1,
    "RT": 1430,
    "action": 1,
    "reward": 2.8
  },
  {
    "phase": "TASK",
    "condition": "Cond1",
    "trial_num": 36,
    "trial_length": 6,
    "click_num": 2,
    "RT": 1651,
    "action": 1,
    "reward": 2.5
  },
  {
    "phase": "TASK",
    "condition": "Cond1",
    "trial_num": 36,
    "trial_length": 6,
    "click_num": 3,
    "RT": 1310,
    "action": 1,
    "reward": 3.5
  },
  {
    "phase": "TASK",
    "condition": "Cond1",
    "trial_num": 36,
    "trial_length": 6,
    "click_num": 4,
    "RT": 1070,
    "action": 0,
    "reward": 3.5
  },
  {
    "phase": "TASK",
    "condition": "Cond1",
    "trial_num": 36,
    "trial_length": 6,
    "click_num": 5,
    "RT": 721,
    "action": 0,
    "reward": 3.5
  },
  {
    "phase": "TASK",
    "condition": "Cond1",
    "trial_num": 36,
    "trial_length": 6,
    "click_num": 6,
    "RT": 895,
    "action": 0,
    "reward": 3.5
  },
  {
    "phase": "TASK",
    "condition": "Cond1",
    "trial_num": 37,
    "trial_length": 5,
    "click_num": 1,
    "RT": 1710,
    "action": 1,
    "reward": 1.4
  },
  {
    "phase": "TASK",
    "condition": "Cond1",
    "trial_num": 37,
    "trial_length": 5,
    "click_num": 2,
    "RT": 1904,
    "action": 1,
    "reward": 2.8
  },
  {
    "phase": "TASK",
    "condition": "Cond1",
    "trial_num": 37,
    "trial_length": 5,
    "click_num": 3,
    "RT": 1216,
    "action": 1,
    "reward": 2.1
  },
  {
    "phase": "TASK",
    "condition": "Cond1",
    "trial_num": 37,
    "trial_length": 5,
    "click_num": 4,
    "RT": 1232,
    "action": 1,
    "reward": 3.9
  },
  {
    "phase": "TASK",
    "condition": "Cond1",
    "trial_num": 37,
    "trial_length": 5,
    "click_num": 5,
    "RT": 1112,
    "action": 0,
    "reward": 3.9
  },
  {
    "phase": "TASK",
    "condition": "Cond1",
    "trial_num": 38,
    "trial_length": 10,
    "click_num": 1,
    "RT": 1518,
    "action": 1,
    "reward": 2.9
  },
  {
    "phase": "TASK",
    "condition": "Cond1",
    "trial_num": 38,
    "trial_length": 10,
    "click_num": 2,
    "RT": 1305,
    "action": 1,
    "reward": 2.3
  },
  {
    "phase": "TASK",
    "condition": "Cond1",
    "trial_num": 38,
    "trial_length": 10,
    "click_num": 3,
    "RT": 1559,
    "action": 1,
    "reward": 2.7
  },
  {
    "phase": "TASK",
    "condition": "Cond1",
    "trial_num": 38,
    "trial_length": 10,
    "click_num": 4,
    "RT": 1302,
    "action": 1,
    "reward": 3.4
  },
  {
    "phase": "TASK",
    "condition": "Cond1",
    "trial_num": 38,
    "trial_length": 10,
    "click_num": 5,
    "RT": 2329,
    "action": 0,
    "reward": 3.4
  },
  {
    "phase": "TASK",
    "condition": "Cond1",
    "trial_num": 38,
    "trial_length": 10,
    "click_num": 6,
    "RT": 1105,
    "action": 0,
    "reward": 3.4
  },
  {
    "phase": "TASK",
    "condition": "Cond1",
    "trial_num": 38,
    "trial_length": 10,
    "click_num": 7,
    "RT": 992,
    "action": 0,
    "reward": 3.4
  },
  {
    "phase": "TASK",
    "condition": "Cond1",
    "trial_num": 38,
    "trial_length": 10,
    "click_num": 8,
    "RT": 729,
    "action": 0,
    "reward": 3.4
  },
  {
    "phase": "TASK",
    "condition": "Cond1",
    "trial_num": 38,
    "trial_length": 10,
    "click_num": 9,
    "RT": 1258,
    "action": 0,
    "reward": 3.4
  },
  {
    "phase": "TASK",
    "condition": "Cond1",
    "trial_num": 38,
    "trial_length": 10,
    "click_num": 10,
    "RT": 845,
    "action": 0,
    "reward": 3.4
  },
  {
    "phase": "TASK",
    "condition": "Cond1",
    "trial_num": 39,
    "trial_length": 10,
    "click_num": 1,
    "RT": 1375,
    "action": 1,
    "reward": 2.5
  },
  {
    "phase": "TASK",
    "condition": "Cond1",
    "trial_num": 39,
    "trial_length": 10,
    "click_num": 2,
    "RT": 1407,
    "action": 1,
    "reward": 3
  },
  {
    "phase": "TASK",
    "condition": "Cond1",
    "trial_num": 39,
    "trial_length": 10,
    "click_num": 3,
    "RT": 1512,
    "action": 1,
    "reward": 3.5
  },
  {
    "phase": "TASK",
    "condition": "Cond1",
    "trial_num": 39,
    "trial_length": 10,
    "click_num": 4,
    "RT": 1087,
    "action": 0,
    "reward": 3.5
  },
  {
    "phase": "TASK",
    "condition": "Cond1",
    "trial_num": 39,
    "trial_length": 10,
    "click_num": 5,
    "RT": 1353,
    "action": 0,
    "reward": 3.5
  },
  {
    "phase": "TASK",
    "condition": "Cond1",
    "trial_num": 39,
    "trial_length": 10,
    "click_num": 6,
    "RT": 695,
    "action": 0,
    "reward": 3.5
  },
  {
    "phase": "TASK",
    "condition": "Cond1",
    "trial_num": 39,
    "trial_length": 10,
    "click_num": 7,
    "RT": 1099,
    "action": 0,
    "reward": 3.5
  },
  {
    "phase": "TASK",
    "condition": "Cond1",
    "trial_num": 39,
    "trial_length": 10,
    "click_num": 8,
    "RT": 1103,
    "action": 0,
    "reward": 3.5
  },
  {
    "phase": "TASK",
    "condition": "Cond1",
    "trial_num": 39,
    "trial_length": 10,
    "click_num": 9,
    "RT": 831,
    "action": 0,
    "reward": 3.5
  },
  {
    "phase": "TASK",
    "condition": "Cond1",
    "trial_num": 39,
    "trial_length": 10,
    "click_num": 10,
    "RT": 867,
    "action": 0,
    "reward": 3.5
  },
  {
    "phase": "TASK",
    "condition": "Cond1",
    "trial_num": 40,
    "trial_length": 10,
    "click_num": 1,
    "RT": 1371,
    "action": 1,
    "reward": 3.4
  },
  {
    "phase": "TASK",
    "condition": "Cond1",
    "trial_num": 40,
    "trial_length": 10,
    "click_num": 2,
    "RT": 1440,
    "action": 0,
    "reward": 3.4
  },
  {
    "phase": "TASK",
    "condition": "Cond1",
    "trial_num": 40,
    "trial_length": 10,
    "click_num": 3,
    "RT": 753,
    "action": 0,
    "reward": 3.4
  },
  {
    "phase": "TASK",
    "condition": "Cond1",
    "trial_num": 40,
    "trial_length": 10,
    "click_num": 4,
    "RT": 848,
    "action": 0,
    "reward": 3.4
  },
  {
    "phase": "TASK",
    "condition": "Cond1",
    "trial_num": 40,
    "trial_length": 10,
    "click_num": 5,
    "RT": 1158,
    "action": 0,
    "reward": 3.4
  },
  {
    "phase": "TASK",
    "condition": "Cond1",
    "trial_num": 40,
    "trial_length": 10,
    "click_num": 6,
    "RT": 803,
    "action": 0,
    "reward": 3.4
  },
  {
    "phase": "TASK",
    "condition": "Cond1",
    "trial_num": 40,
    "trial_length": 10,
    "click_num": 7,
    "RT": 775,
    "action": 0,
    "reward": 3.4
  },
  {
    "phase": "TASK",
    "condition": "Cond1",
    "trial_num": 40,
    "trial_length": 10,
    "click_num": 8,
    "RT": 752,
    "action": 0,
    "reward": 3.4
  },
  {
    "phase": "TASK",
    "condition": "Cond1",
    "trial_num": 40,
    "trial_length": 10,
    "click_num": 9,
    "RT": 824,
    "action": 0,
    "reward": 3.4
  },
  {
    "phase": "TASK",
    "condition": "Cond1",
    "trial_num": 40,
    "trial_length": 10,
    "click_num": 10,
    "RT": 663,
    "action": 0,
    "reward": 3.4
  },
  {
    "phase": "TASK",
    "condition": "Cond1",
    "trial_num": 41,
    "trial_length": 9,
    "click_num": 1,
    "RT": 1701,
    "action": 1,
    "reward": 3.3
  },
  {
    "phase": "TASK",
    "condition": "Cond1",
    "trial_num": 41,
    "trial_length": 9,
    "click_num": 2,
    "RT": 2008,
    "action": 0,
    "reward": 3.3
  },
  {
    "phase": "TASK",
    "condition": "Cond1",
    "trial_num": 41,
    "trial_length": 9,
    "click_num": 3,
    "RT": 696,
    "action": 0,
    "reward": 3.3
  },
  {
    "phase": "TASK",
    "condition": "Cond1",
    "trial_num": 41,
    "trial_length": 9,
    "click_num": 4,
    "RT": 737,
    "action": 0,
    "reward": 3.3
  },
  {
    "phase": "TASK",
    "condition": "Cond1",
    "trial_num": 41,
    "trial_length": 9,
    "click_num": 5,
    "RT": 856,
    "action": 0,
    "reward": 3.3
  },
  {
    "phase": "TASK",
    "condition": "Cond1",
    "trial_num": 41,
    "trial_length": 9,
    "click_num": 6,
    "RT": 720,
    "action": 0,
    "reward": 3.3
  },
  {
    "phase": "TASK",
    "condition": "Cond1",
    "trial_num": 41,
    "trial_length": 9,
    "click_num": 7,
    "RT": 1217,
    "action": 0,
    "reward": 3.3
  },
  {
    "phase": "TASK",
    "condition": "Cond1",
    "trial_num": 41,
    "trial_length": 9,
    "click_num": 8,
    "RT": 718,
    "action": 0,
    "reward": 3.3
  },
  {
    "phase": "TASK",
    "condition": "Cond1",
    "trial_num": 41,
    "trial_length": 9,
    "click_num": 9,
    "RT": 1195,
    "action": 0,
    "reward": 3.3
  },
  {
    "phase": "TASK",
    "condition": "Cond1",
    "trial_num": 42,
    "trial_length": 7,
    "click_num": 1,
    "RT": 1350,
    "action": 1,
    "reward": 3
  },
  {
    "phase": "TASK",
    "condition": "Cond1",
    "trial_num": 42,
    "trial_length": 7,
    "click_num": 2,
    "RT": 2089,
    "action": 1,
    "reward": 3.5
  },
  {
    "phase": "TASK",
    "condition": "Cond1",
    "trial_num": 42,
    "trial_length": 7,
    "click_num": 3,
    "RT": 1286,
    "action": 0,
    "reward": 3.5
  },
  {
    "phase": "TASK",
    "condition": "Cond1",
    "trial_num": 42,
    "trial_length": 7,
    "click_num": 4,
    "RT": 715,
    "action": 0,
    "reward": 3.5
  },
  {
    "phase": "TASK",
    "condition": "Cond1",
    "trial_num": 42,
    "trial_length": 7,
    "click_num": 5,
    "RT": 725,
    "action": 0,
    "reward": 3.5
  },
  {
    "phase": "TASK",
    "condition": "Cond1",
    "trial_num": 42,
    "trial_length": 7,
    "click_num": 6,
    "RT": 737,
    "action": 0,
    "reward": 3.5
  },
  {
    "phase": "TASK",
    "condition": "Cond1",
    "trial_num": 42,
    "trial_length": 7,
    "click_num": 7,
    "RT": 1271,
    "action": 0,
    "reward": 3.5
  },
  {
    "phase": "TASK",
    "condition": "Cond1",
    "trial_num": 43,
    "trial_length": 9,
    "click_num": 1,
    "RT": 1583,
    "action": 1,
    "reward": 3.9
  },
  {
    "phase": "TASK",
    "condition": "Cond1",
    "trial_num": 43,
    "trial_length": 9,
    "click_num": 2,
    "RT": 1328,
    "action": 0,
    "reward": 3.9
  },
  {
    "phase": "TASK",
    "condition": "Cond1",
    "trial_num": 43,
    "trial_length": 9,
    "click_num": 3,
    "RT": 1112,
    "action": 0,
    "reward": 3.9
  },
  {
    "phase": "TASK",
    "condition": "Cond1",
    "trial_num": 43,
    "trial_length": 9,
    "click_num": 4,
    "RT": 1784,
    "action": 0,
    "reward": 3.9
  },
  {
    "phase": "TASK",
    "condition": "Cond1",
    "trial_num": 43,
    "trial_length": 9,
    "click_num": 5,
    "RT": 1967,
    "action": 0,
    "reward": 3.9
  },
  {
    "phase": "TASK",
    "condition": "Cond1",
    "trial_num": 43,
    "trial_length": 9,
    "click_num": 6,
    "RT": 1192,
    "action": 0,
    "reward": 3.9
  },
  {
    "phase": "TASK",
    "condition": "Cond1",
    "trial_num": 43,
    "trial_length": 9,
    "click_num": 7,
    "RT": 1048,
    "action": 0,
    "reward": 3.9
  },
  {
    "phase": "TASK",
    "condition": "Cond1",
    "trial_num": 43,
    "trial_length": 9,
    "click_num": 8,
    "RT": 791,
    "action": 0,
    "reward": 3.9
  },
  {
    "phase": "TASK",
    "condition": "Cond1",
    "trial_num": 43,
    "trial_length": 9,
    "click_num": 9,
    "RT": 1170,
    "action": 0,
    "reward": 3.9
  },
  {
    "phase": "TASK",
    "condition": "Cond1",
    "trial_num": 44,
    "trial_length": 8,
    "click_num": 1,
    "RT": 1357,
    "action": 1,
    "reward": 3.6
  },
  {
    "phase": "TASK",
    "condition": "Cond1",
    "trial_num": 44,
    "trial_length": 8,
    "click_num": 2,
    "RT": 1154,
    "action": 0,
    "reward": 3.6
  },
  {
    "phase": "TASK",
    "condition": "Cond1",
    "trial_num": 44,
    "trial_length": 8,
    "click_num": 3,
    "RT": 1184,
    "action": 0,
    "reward": 3.6
  },
  {
    "phase": "TASK",
    "condition": "Cond1",
    "trial_num": 44,
    "trial_length": 8,
    "click_num": 4,
    "RT": 1408,
    "action": 0,
    "reward": 3.6
  },
  {
    "phase": "TASK",
    "condition": "Cond1",
    "trial_num": 44,
    "trial_length": 8,
    "click_num": 5,
    "RT": 944,
    "action": 0,
    "reward": 3.6
  },
  {
    "phase": "TASK",
    "condition": "Cond1",
    "trial_num": 44,
    "trial_length": 8,
    "click_num": 6,
    "RT": 783,
    "action": 0,
    "reward": 3.6
  },
  {
    "phase": "TASK",
    "condition": "Cond1",
    "trial_num": 44,
    "trial_length": 8,
    "click_num": 7,
    "RT": 1657,
    "action": 0,
    "reward": 3.6
  },
  {
    "phase": "TASK",
    "condition": "Cond1",
    "trial_num": 44,
    "trial_length": 8,
    "click_num": 8,
    "RT": 1127,
    "action": 0,
    "reward": 3.6
  },
  {
    "phase": "TASK",
    "condition": "Cond1",
    "trial_num": 45,
    "trial_length": 10,
    "click_num": 1,
    "RT": 1245,
    "action": 1,
    "reward": 3.4
  },
  {
    "phase": "TASK",
    "condition": "Cond1",
    "trial_num": 45,
    "trial_length": 10,
    "click_num": 2,
    "RT": 1273,
    "action": 0,
    "reward": 3.4
  },
  {
    "phase": "TASK",
    "condition": "Cond1",
    "trial_num": 45,
    "trial_length": 10,
    "click_num": 3,
    "RT": 712,
    "action": 0,
    "reward": 3.4
  },
  {
    "phase": "TASK",
    "condition": "Cond1",
    "trial_num": 45,
    "trial_length": 10,
    "click_num": 4,
    "RT": 743,
    "action": 0,
    "reward": 3.4
  },
  {
    "phase": "TASK",
    "condition": "Cond1",
    "trial_num": 45,
    "trial_length": 10,
    "click_num": 5,
    "RT": 728,
    "action": 0,
    "reward": 3.4
  },
  {
    "phase": "TASK",
    "condition": "Cond1",
    "trial_num": 45,
    "trial_length": 10,
    "click_num": 6,
    "RT": 704,
    "action": 0,
    "reward": 3.4
  },
  {
    "phase": "TASK",
    "condition": "Cond1",
    "trial_num": 45,
    "trial_length": 10,
    "click_num": 7,
    "RT": 1160,
    "action": 0,
    "reward": 3.4
  },
  {
    "phase": "TASK",
    "condition": "Cond1",
    "trial_num": 45,
    "trial_length": 10,
    "click_num": 8,
    "RT": 712,
    "action": 0,
    "reward": 3.4
  },
  {
    "phase": "TASK",
    "condition": "Cond1",
    "trial_num": 45,
    "trial_length": 10,
    "click_num": 9,
    "RT": 768,
    "action": 0,
    "reward": 3.4
  },
  {
    "phase": "TASK",
    "condition": "Cond1",
    "trial_num": 45,
    "trial_length": 10,
    "click_num": 10,
    "RT": 776,
    "action": 0,
    "reward": 3.4
  },
  {
    "phase": "TASK",
    "condition": "Cond1",
    "trial_num": 46,
    "trial_length": 8,
    "click_num": 1,
    "RT": 1264,
    "action": 1,
    "reward": 2.9
  },
  {
    "phase": "TASK",
    "condition": "Cond1",
    "trial_num": 46,
    "trial_length": 8,
    "click_num": 2,
    "RT": 1598,
    "action": 1,
    "reward": 3.5
  },
  {
    "phase": "TASK",
    "condition": "Cond1",
    "trial_num": 46,
    "trial_length": 8,
    "click_num": 3,
    "RT": 1808,
    "action": 0,
    "reward": 3.5
  },
  {
    "phase": "TASK",
    "condition": "Cond1",
    "trial_num": 46,
    "trial_length": 8,
    "click_num": 4,
    "RT": 862,
    "action": 0,
    "reward": 3.5
  },
  {
    "phase": "TASK",
    "condition": "Cond1",
    "trial_num": 46,
    "trial_length": 8,
    "click_num": 5,
    "RT": 653,
    "action": 0,
    "reward": 3.5
  },
  {
    "phase": "TASK",
    "condition": "Cond1",
    "trial_num": 46,
    "trial_length": 8,
    "click_num": 6,
    "RT": 765,
    "action": 0,
    "reward": 3.5
  },
  {
    "phase": "TASK",
    "condition": "Cond1",
    "trial_num": 46,
    "trial_length": 8,
    "click_num": 7,
    "RT": 720,
    "action": 0,
    "reward": 3.5
  },
  {
    "phase": "TASK",
    "condition": "Cond1",
    "trial_num": 46,
    "trial_length": 8,
    "click_num": 8,
    "RT": 1530,
    "action": 0,
    "reward": 3.5
  },
  {
    "phase": "TASK",
    "condition": "Cond1",
    "trial_num": 47,
    "trial_length": 5,
    "click_num": 1,
    "RT": 1287,
    "action": 1,
    "reward": 3.3
  },
  {
    "phase": "TASK",
    "condition": "Cond1",
    "trial_num": 47,
    "trial_length": 5,
    "click_num": 2,
    "RT": 2102,
    "action": 1,
    "reward": 2.8
  },
  {
    "phase": "TASK",
    "condition": "Cond1",
    "trial_num": 47,
    "trial_length": 5,
    "click_num": 3,
    "RT": 1528,
    "action": 0,
    "reward": 3.3
  },
  {
    "phase": "TASK",
    "condition": "Cond1",
    "trial_num": 47,
    "trial_length": 5,
    "click_num": 4,
    "RT": 939,
    "action": 0,
    "reward": 3.3
  },
  {
    "phase": "TASK",
    "condition": "Cond1",
    "trial_num": 47,
    "trial_length": 5,
    "click_num": 5,
    "RT": 676,
    "action": 0,
    "reward": 3.3
  },
  {
    "phase": "TASK",
    "condition": "Cond1",
    "trial_num": 48,
    "trial_length": 5,
    "click_num": 1,
    "RT": 1613,
    "action": 1,
    "reward": 1.3
  },
  {
    "phase": "TASK",
    "condition": "Cond1",
    "trial_num": 48,
    "trial_length": 5,
    "click_num": 2,
    "RT": 2953,
    "action": 1,
    "reward": 2.1
  },
  {
    "phase": "TASK",
    "condition": "Cond1",
    "trial_num": 48,
    "trial_length": 5,
    "click_num": 3,
    "RT": 1448,
    "action": 1,
    "reward": 2.5
  },
  {
    "phase": "TASK",
    "condition": "Cond1",
    "trial_num": 48,
    "trial_length": 5,
    "click_num": 4,
    "RT": 1255,
    "action": 1,
    "reward": 3.2
  },
  {
    "phase": "TASK",
    "condition": "Cond1",
    "trial_num": 48,
    "trial_length": 5,
    "click_num": 5,
    "RT": 1593,
    "action": 1,
    "reward": 2.6
  },
  {
    "phase": "TASK",
    "condition": "Cond1",
    "trial_num": 49,
    "trial_length": 9,
    "click_num": 1,
    "RT": 1417,
    "action": 1,
    "reward": 2.4
  },
  {
    "phase": "TASK",
    "condition": "Cond1",
    "trial_num": 49,
    "trial_length": 9,
    "click_num": 2,
    "RT": 1356,
    "action": 1,
    "reward": 2.6
  },
  {
    "phase": "TASK",
    "condition": "Cond1",
    "trial_num": 49,
    "trial_length": 9,
    "click_num": 3,
    "RT": 983,
    "action": 1,
    "reward": 2.3
  },
  {
    "phase": "TASK",
    "condition": "Cond1",
    "trial_num": 49,
    "trial_length": 9,
    "click_num": 4,
    "RT": 1040,
    "action": 1,
    "reward": 3.3
  },
  {
    "phase": "TASK",
    "condition": "Cond1",
    "trial_num": 49,
    "trial_length": 9,
    "click_num": 5,
    "RT": 1337,
    "action": 0,
    "reward": 3.3
  },
  {
    "phase": "TASK",
    "condition": "Cond1",
    "trial_num": 49,
    "trial_length": 9,
    "click_num": 6,
    "RT": 1113,
    "action": 0,
    "reward": 3.3
  },
  {
    "phase": "TASK",
    "condition": "Cond1",
    "trial_num": 49,
    "trial_length": 9,
    "click_num": 7,
    "RT": 647,
    "action": 0,
    "reward": 3.3
  },
  {
    "phase": "TASK",
    "condition": "Cond1",
    "trial_num": 49,
    "trial_length": 9,
    "click_num": 8,
    "RT": 690,
    "action": 0,
    "reward": 3.3
  },
  {
    "phase": "TASK",
    "condition": "Cond1",
    "trial_num": 49,
    "trial_length": 9,
    "click_num": 9,
    "RT": 598,
    "action": 0,
    "reward": 3.3
  },
  {
    "phase": "TASK",
    "condition": "Cond1",
    "trial_num": 50,
    "trial_length": 8,
    "click_num": 1,
    "RT": 2951,
    "action": 1,
    "reward": 1.6
  },
  {
    "phase": "TASK",
    "condition": "Cond1",
    "trial_num": 50,
    "trial_length": 8,
    "click_num": 2,
    "RT": 1471,
    "action": 1,
    "reward": 3.1
  },
  {
    "phase": "TASK",
    "condition": "Cond1",
    "trial_num": 50,
    "trial_length": 8,
    "click_num": 3,
    "RT": 1544,
    "action": 1,
    "reward": 1.9
  },
  {
    "phase": "TASK",
    "condition": "Cond1",
    "trial_num": 50,
    "trial_length": 8,
    "click_num": 4,
    "RT": 1587,
    "action": 1,
    "reward": 2.4
  },
  {
    "phase": "TASK",
    "condition": "Cond1",
    "trial_num": 50,
    "trial_length": 8,
    "click_num": 5,
    "RT": 1074,
    "action": 1,
    "reward": 3.7
  },
  {
    "phase": "TASK",
    "condition": "Cond1",
    "trial_num": 50,
    "trial_length": 8,
    "click_num": 6,
    "RT": 1243,
    "action": 0,
    "reward": 3.7
  },
  {
    "phase": "TASK",
    "condition": "Cond1",
    "trial_num": 50,
    "trial_length": 8,
    "click_num": 7,
    "RT": 968,
    "action": 0,
    "reward": 3.7
  },
  {
    "phase": "TASK",
    "condition": "Cond1",
    "trial_num": 50,
    "trial_length": 8,
    "click_num": 8,
    "RT": 987,
    "action": 0,
    "reward": 3.7
  },
  {
    "phase": "TASK",
    "condition": "Cond1",
    "trial_num": 51,
    "trial_length": 8,
    "click_num": 1,
    "RT": 2227,
    "action": 1,
    "reward": 3.6
  },
  {
    "phase": "TASK",
    "condition": "Cond1",
    "trial_num": 51,
    "trial_length": 8,
    "click_num": 2,
    "RT": 2263,
    "action": 0,
    "reward": 3.6
  },
  {
    "phase": "TASK",
    "condition": "Cond1",
    "trial_num": 51,
    "trial_length": 8,
    "click_num": 3,
    "RT": 761,
    "action": 0,
    "reward": 3.6
  },
  {
    "phase": "TASK",
    "condition": "Cond1",
    "trial_num": 51,
    "trial_length": 8,
    "click_num": 4,
    "RT": 703,
    "action": 0,
    "reward": 3.6
  },
  {
    "phase": "TASK",
    "condition": "Cond1",
    "trial_num": 51,
    "trial_length": 8,
    "click_num": 5,
    "RT": 688,
    "action": 0,
    "reward": 3.6
  },
  {
    "phase": "TASK",
    "condition": "Cond1",
    "trial_num": 51,
    "trial_length": 8,
    "click_num": 6,
    "RT": 1241,
    "action": 0,
    "reward": 3.6
  },
  {
    "phase": "TASK",
    "condition": "Cond1",
    "trial_num": 51,
    "trial_length": 8,
    "click_num": 7,
    "RT": 1760,
    "action": 0,
    "reward": 3.6
  },
  {
    "phase": "TASK",
    "condition": "Cond1",
    "trial_num": 51,
    "trial_length": 8,
    "click_num": 8,
    "RT": 663,
    "action": 0,
    "reward": 3.6
  },
  {
    "phase": "TASK",
    "condition": "Cond1",
    "trial_num": 52,
    "trial_length": 7,
    "click_num": 1,
    "RT": 1559,
    "action": 1,
    "reward": 2.4
  },
  {
    "phase": "TASK",
    "condition": "Cond1",
    "trial_num": 52,
    "trial_length": 7,
    "click_num": 2,
    "RT": 1423,
    "action": 1,
    "reward": 2
  },
  {
    "phase": "TASK",
    "condition": "Cond1",
    "trial_num": 52,
    "trial_length": 7,
    "click_num": 3,
    "RT": 1288,
    "action": 1,
    "reward": 3.4
  },
  {
    "phase": "TASK",
    "condition": "Cond1",
    "trial_num": 52,
    "trial_length": 7,
    "click_num": 4,
    "RT": 1043,
    "action": 0,
    "reward": 3.4
  },
  {
    "phase": "TASK",
    "condition": "Cond1",
    "trial_num": 52,
    "trial_length": 7,
    "click_num": 5,
    "RT": 1061,
    "action": 0,
    "reward": 3.4
  },
  {
    "phase": "TASK",
    "condition": "Cond1",
    "trial_num": 52,
    "trial_length": 7,
    "click_num": 6,
    "RT": 1208,
    "action": 0,
    "reward": 3.4
  },
  {
    "phase": "TASK",
    "condition": "Cond1",
    "trial_num": 52,
    "trial_length": 7,
    "click_num": 7,
    "RT": 928,
    "action": 0,
    "reward": 3.4
  },
  {
    "phase": "TASK",
    "condition": "Cond1",
    "trial_num": 53,
    "trial_length": 9,
    "click_num": 1,
    "RT": 1200,
    "action": 1,
    "reward": 3.3
  },
  {
    "phase": "TASK",
    "condition": "Cond1",
    "trial_num": 53,
    "trial_length": 9,
    "click_num": 2,
    "RT": 1487,
    "action": 0,
    "reward": 3.3
  },
  {
    "phase": "TASK",
    "condition": "Cond1",
    "trial_num": 53,
    "trial_length": 9,
    "click_num": 3,
    "RT": 1008,
    "action": 0,
    "reward": 3.3
  },
  {
    "phase": "TASK",
    "condition": "Cond1",
    "trial_num": 53,
    "trial_length": 9,
    "click_num": 4,
    "RT": 651,
    "action": 0,
    "reward": 3.3
  },
  {
    "phase": "TASK",
    "condition": "Cond1",
    "trial_num": 53,
    "trial_length": 9,
    "click_num": 5,
    "RT": 693,
    "action": 0,
    "reward": 3.3
  },
  {
    "phase": "TASK",
    "condition": "Cond1",
    "trial_num": 53,
    "trial_length": 9,
    "click_num": 6,
    "RT": 761,
    "action": 0,
    "reward": 3.3
  },
  {
    "phase": "TASK",
    "condition": "Cond1",
    "trial_num": 53,
    "trial_length": 9,
    "click_num": 7,
    "RT": 718,
    "action": 0,
    "reward": 3.3
  },
  {
    "phase": "TASK",
    "condition": "Cond1",
    "trial_num": 53,
    "trial_length": 9,
    "click_num": 8,
    "RT": 705,
    "action": 0,
    "reward": 3.3
  },
  {
    "phase": "TASK",
    "condition": "Cond1",
    "trial_num": 53,
    "trial_length": 9,
    "click_num": 9,
    "RT": 855,
    "action": 0,
    "reward": 3.3
  },
  {
    "phase": "TASK",
    "condition": "Cond1",
    "trial_num": 54,
    "trial_length": 7,
    "click_num": 1,
    "RT": 1647,
    "action": 1,
    "reward": 3.6
  },
  {
    "phase": "TASK",
    "condition": "Cond1",
    "trial_num": 54,
    "trial_length": 7,
    "click_num": 2,
    "RT": 1224,
    "action": 0,
    "reward": 3.6
  },
  {
    "phase": "TASK",
    "condition": "Cond1",
    "trial_num": 54,
    "trial_length": 7,
    "click_num": 3,
    "RT": 848,
    "action": 0,
    "reward": 3.6
  },
  {
    "phase": "TASK",
    "condition": "Cond1",
    "trial_num": 54,
    "trial_length": 7,
    "click_num": 4,
    "RT": 1352,
    "action": 0,
    "reward": 3.6
  },
  {
    "phase": "TASK",
    "condition": "Cond1",
    "trial_num": 54,
    "trial_length": 7,
    "click_num": 5,
    "RT": 658,
    "action": 0,
    "reward": 3.6
  },
  {
    "phase": "TASK",
    "condition": "Cond1",
    "trial_num": 54,
    "trial_length": 7,
    "click_num": 6,
    "RT": 1158,
    "action": 0,
    "reward": 3.6
  },
  {
    "phase": "TASK",
    "condition": "Cond1",
    "trial_num": 54,
    "trial_length": 7,
    "click_num": 7,
    "RT": 712,
    "action": 0,
    "reward": 3.6
  },
  {
    "phase": "TASK",
    "condition": "Cond1",
    "trial_num": 55,
    "trial_length": 9,
    "click_num": 1,
    "RT": 1326,
    "action": 1,
    "reward": 1.8
  },
  {
    "phase": "TASK",
    "condition": "Cond1",
    "trial_num": 55,
    "trial_length": 9,
    "click_num": 2,
    "RT": 1423,
    "action": 1,
    "reward": 2.1
  },
  {
    "phase": "TASK",
    "condition": "Cond1",
    "trial_num": 55,
    "trial_length": 9,
    "click_num": 3,
    "RT": 1024,
    "action": 1,
    "reward": 3.9
  },
  {
    "phase": "TASK",
    "condition": "Cond1",
    "trial_num": 55,
    "trial_length": 9,
    "click_num": 4,
    "RT": 1593,
    "action": 0,
    "reward": 3.9
  },
  {
    "phase": "TASK",
    "condition": "Cond1",
    "trial_num": 55,
    "trial_length": 9,
    "click_num": 5,
    "RT": 1063,
    "action": 0,
    "reward": 3.9
  },
  {
    "phase": "TASK",
    "condition": "Cond1",
    "trial_num": 55,
    "trial_length": 9,
    "click_num": 6,
    "RT": 952,
    "action": 0,
    "reward": 3.9
  },
  {
    "phase": "TASK",
    "condition": "Cond1",
    "trial_num": 55,
    "trial_length": 9,
    "click_num": 7,
    "RT": 715,
    "action": 0,
    "reward": 3.9
  },
  {
    "phase": "TASK",
    "condition": "Cond1",
    "trial_num": 55,
    "trial_length": 9,
    "click_num": 8,
    "RT": 732,
    "action": 0,
    "reward": 3.9
  },
  {
    "phase": "TASK",
    "condition": "Cond1",
    "trial_num": 55,
    "trial_length": 9,
    "click_num": 9,
    "RT": 841,
    "action": 0,
    "reward": 3.9
  },
  {
    "phase": "TASK",
    "condition": "Cond1",
    "trial_num": 56,
    "trial_length": 5,
    "click_num": 1,
    "RT": 1383,
    "action": 1,
    "reward": 3.5
  },
  {
    "phase": "TASK",
    "condition": "Cond1",
    "trial_num": 56,
    "trial_length": 5,
    "click_num": 2,
    "RT": 1310,
    "action": 0,
    "reward": 3.5
  },
  {
    "phase": "TASK",
    "condition": "Cond1",
    "trial_num": 56,
    "trial_length": 5,
    "click_num": 3,
    "RT": 642,
    "action": 0,
    "reward": 3.5
  },
  {
    "phase": "TASK",
    "condition": "Cond1",
    "trial_num": 56,
    "trial_length": 5,
    "click_num": 4,
    "RT": 656,
    "action": 0,
    "reward": 3.5
  },
  {
    "phase": "TASK",
    "condition": "Cond1",
    "trial_num": 56,
    "trial_length": 5,
    "click_num": 5,
    "RT": 919,
    "action": 0,
    "reward": 3.5
  },
  {
    "phase": "TASK",
    "condition": "Cond1",
    "trial_num": 57,
    "trial_length": 9,
    "click_num": 1,
    "RT": 1097,
    "action": 1,
    "reward": 2.7
  },
  {
    "phase": "TASK",
    "condition": "Cond1",
    "trial_num": 57,
    "trial_length": 9,
    "click_num": 2,
    "RT": 1216,
    "action": 1,
    "reward": 3.5
  },
  {
    "phase": "TASK",
    "condition": "Cond1",
    "trial_num": 57,
    "trial_length": 9,
    "click_num": 3,
    "RT": 1285,
    "action": 0,
    "reward": 3.5
  },
  {
    "phase": "TASK",
    "condition": "Cond1",
    "trial_num": 57,
    "trial_length": 9,
    "click_num": 4,
    "RT": 721,
    "action": 0,
    "reward": 3.5
  },
  {
    "phase": "TASK",
    "condition": "Cond1",
    "trial_num": 57,
    "trial_length": 9,
    "click_num": 5,
    "RT": 674,
    "action": 0,
    "reward": 3.5
  },
  {
    "phase": "TASK",
    "condition": "Cond1",
    "trial_num": 57,
    "trial_length": 9,
    "click_num": 6,
    "RT": 1013,
    "action": 0,
    "reward": 3.5
  },
  {
    "phase": "TASK",
    "condition": "Cond1",
    "trial_num": 57,
    "trial_length": 9,
    "click_num": 7,
    "RT": 904,
    "action": 0,
    "reward": 3.5
  },
  {
    "phase": "TASK",
    "condition": "Cond1",
    "trial_num": 57,
    "trial_length": 9,
    "click_num": 8,
    "RT": 721,
    "action": 0,
    "reward": 3.5
  },
  {
    "phase": "TASK",
    "condition": "Cond1",
    "trial_num": 57,
    "trial_length": 9,
    "click_num": 9,
    "RT": 688,
    "action": 0,
    "reward": 3.5
  },
  {
    "phase": "TASK",
    "condition": "Cond1",
    "trial_num": 58,
    "trial_length": 7,
    "click_num": 1,
    "RT": 1285,
    "action": 1,
    "reward": 2.2
  },
  {
    "phase": "TASK",
    "condition": "Cond1",
    "trial_num": 58,
    "trial_length": 7,
    "click_num": 2,
    "RT": 1248,
    "action": 1,
    "reward": 2.1
  },
  {
    "phase": "TASK",
    "condition": "Cond1",
    "trial_num": 58,
    "trial_length": 7,
    "click_num": 3,
    "RT": 1152,
    "action": 1,
    "reward": 2.4
  },
  {
    "phase": "TASK",
    "condition": "Cond1",
    "trial_num": 58,
    "trial_length": 7,
    "click_num": 4,
    "RT": 1129,
    "action": 1,
    "reward": 2.6
  },
  {
    "phase": "TASK",
    "condition": "Cond1",
    "trial_num": 58,
    "trial_length": 7,
    "click_num": 5,
    "RT": 983,
    "action": 1,
    "reward": 2
  },
  {
    "phase": "TASK",
    "condition": "Cond1",
    "trial_num": 58,
    "trial_length": 7,
    "click_num": 6,
    "RT": 1025,
    "action": 1,
    "reward": 3.7
  },
  {
    "phase": "TASK",
    "condition": "Cond1",
    "trial_num": 58,
    "trial_length": 7,
    "click_num": 7,
    "RT": 1399,
    "action": 0,
    "reward": 3.7
  },
  {
    "phase": "TASK",
    "condition": "Cond1",
    "trial_num": 59,
    "trial_length": 10,
    "click_num": 1,
    "RT": 1126,
    "action": 1,
    "reward": 3.1
  },
  {
    "phase": "TASK",
    "condition": "Cond1",
    "trial_num": 59,
    "trial_length": 10,
    "click_num": 2,
    "RT": 1775,
    "action": 1,
    "reward": 3.7
  },
  {
    "phase": "TASK",
    "condition": "Cond1",
    "trial_num": 59,
    "trial_length": 10,
    "click_num": 3,
    "RT": 1952,
    "action": 0,
    "reward": 3.7
  },
  {
    "phase": "TASK",
    "condition": "Cond1",
    "trial_num": 59,
    "trial_length": 10,
    "click_num": 4,
    "RT": 687,
    "action": 0,
    "reward": 3.7
  },
  {
    "phase": "TASK",
    "condition": "Cond1",
    "trial_num": 59,
    "trial_length": 10,
    "click_num": 5,
    "RT": 985,
    "action": 0,
    "reward": 3.7
  },
  {
    "phase": "TASK",
    "condition": "Cond1",
    "trial_num": 59,
    "trial_length": 10,
    "click_num": 6,
    "RT": 673,
    "action": 0,
    "reward": 3.7
  },
  {
    "phase": "TASK",
    "condition": "Cond1",
    "trial_num": 59,
    "trial_length": 10,
    "click_num": 7,
    "RT": 679,
    "action": 0,
    "reward": 3.7
  },
  {
    "phase": "TASK",
    "condition": "Cond1",
    "trial_num": 59,
    "trial_length": 10,
    "click_num": 8,
    "RT": 698,
    "action": 0,
    "reward": 3.7
  },
  {
    "phase": "TASK",
    "condition": "Cond1",
    "trial_num": 59,
    "trial_length": 10,
    "click_num": 9,
    "RT": 687,
    "action": 0,
    "reward": 3.7
  },
  {
    "phase": "TASK",
    "condition": "Cond1",
    "trial_num": 59,
    "trial_length": 10,
    "click_num": 10,
    "RT": 975,
    "action": 0,
    "reward": 3.7
  },
  {
    "phase": "TASK",
    "condition": "Cond1",
    "trial_num": 60,
    "trial_length": 6,
    "click_num": 1,
    "RT": 1229,
    "action": 1,
    "reward": 2.7
  },
  {
    "phase": "TASK",
    "condition": "Cond1",
    "trial_num": 60,
    "trial_length": 6,
    "click_num": 2,
    "RT": 1376,
    "action": 1,
    "reward": 3.1
  },
  {
    "phase": "TASK",
    "condition": "Cond1",
    "trial_num": 60,
    "trial_length": 6,
    "click_num": 3,
    "RT": 2608,
    "action": 1,
    "reward": 3.6
  },
  {
    "phase": "TASK",
    "condition": "Cond1",
    "trial_num": 60,
    "trial_length": 6,
    "click_num": 4,
    "RT": 1016,
    "action": 0,
    "reward": 3.6
  },
  {
    "phase": "TASK",
    "condition": "Cond1",
    "trial_num": 60,
    "trial_length": 6,
    "click_num": 5,
    "RT": 980,
    "action": 0,
    "reward": 3.6
  },
  {
    "phase": "TASK",
    "condition": "Cond1",
    "trial_num": 60,
    "trial_length": 6,
    "click_num": 6,
    "RT": 1069,
    "action": 0,
    "reward": 3.6
  },
  {
    "phase": "TASK",
    "condition": "Cond1",
    "trial_num": 61,
    "trial_length": 10,
    "click_num": 1,
    "RT": 1190,
    "action": 1,
    "reward": 3
  },
  {
    "phase": "TASK",
    "condition": "Cond1",
    "trial_num": 61,
    "trial_length": 10,
    "click_num": 2,
    "RT": 1415,
    "action": 1,
    "reward": 1.7
  },
  {
    "phase": "TASK",
    "condition": "Cond1",
    "trial_num": 61,
    "trial_length": 10,
    "click_num": 3,
    "RT": 1240,
    "action": 1,
    "reward": 4.2
  },
  {
    "phase": "TASK",
    "condition": "Cond1",
    "trial_num": 61,
    "trial_length": 10,
    "click_num": 4,
    "RT": 1224,
    "action": 0,
    "reward": 4.2
  },
  {
    "phase": "TASK",
    "condition": "Cond1",
    "trial_num": 61,
    "trial_length": 10,
    "click_num": 5,
    "RT": 1144,
    "action": 0,
    "reward": 4.2
  },
  {
    "phase": "TASK",
    "condition": "Cond1",
    "trial_num": 61,
    "trial_length": 10,
    "click_num": 6,
    "RT": 712,
    "action": 0,
    "reward": 4.2
  },
  {
    "phase": "TASK",
    "condition": "Cond1",
    "trial_num": 61,
    "trial_length": 10,
    "click_num": 7,
    "RT": 681,
    "action": 0,
    "reward": 4.2
  },
  {
    "phase": "TASK",
    "condition": "Cond1",
    "trial_num": 61,
    "trial_length": 10,
    "click_num": 8,
    "RT": 800,
    "action": 0,
    "reward": 4.2
  },
  {
    "phase": "TASK",
    "condition": "Cond1",
    "trial_num": 61,
    "trial_length": 10,
    "click_num": 9,
    "RT": 955,
    "action": 0,
    "reward": 4.2
  },
  {
    "phase": "TASK",
    "condition": "Cond1",
    "trial_num": 61,
    "trial_length": 10,
    "click_num": 10,
    "RT": 1101,
    "action": 0,
    "reward": 4.2
  },
  {
    "phase": "TASK",
    "condition": "Cond1",
    "trial_num": 62,
    "trial_length": 5,
    "click_num": 1,
    "RT": 1628,
    "action": 1,
    "reward": 3
  },
  {
    "phase": "TASK",
    "condition": "Cond1",
    "trial_num": 62,
    "trial_length": 5,
    "click_num": 2,
    "RT": 2161,
    "action": 1,
    "reward": 2.4
  },
  {
    "phase": "TASK",
    "condition": "Cond1",
    "trial_num": 62,
    "trial_length": 5,
    "click_num": 3,
    "RT": 1360,
    "action": 1,
    "reward": 3.7
  },
  {
    "phase": "TASK",
    "condition": "Cond1",
    "trial_num": 62,
    "trial_length": 5,
    "click_num": 4,
    "RT": 992,
    "action": 0,
    "reward": 3.7
  },
  {
    "phase": "TASK",
    "condition": "Cond1",
    "trial_num": 62,
    "trial_length": 5,
    "click_num": 5,
    "RT": 905,
    "action": 0,
    "reward": 3.7
  },
  {
    "phase": "TASK",
    "condition": "Cond1",
    "trial_num": 63,
    "trial_length": 10,
    "click_num": 1,
    "RT": 1034,
    "action": 1,
    "reward": 3.6
  },
  {
    "phase": "TASK",
    "condition": "Cond1",
    "trial_num": 63,
    "trial_length": 10,
    "click_num": 2,
    "RT": 1342,
    "action": 0,
    "reward": 3.6
  },
  {
    "phase": "TASK",
    "condition": "Cond1",
    "trial_num": 63,
    "trial_length": 10,
    "click_num": 3,
    "RT": 864,
    "action": 0,
    "reward": 3.6
  },
  {
    "phase": "TASK",
    "condition": "Cond1",
    "trial_num": 63,
    "trial_length": 10,
    "click_num": 4,
    "RT": 719,
    "action": 0,
    "reward": 3.6
  },
  {
    "phase": "TASK",
    "condition": "Cond1",
    "trial_num": 63,
    "trial_length": 10,
    "click_num": 5,
    "RT": 704,
    "action": 0,
    "reward": 3.6
  },
  {
    "phase": "TASK",
    "condition": "Cond1",
    "trial_num": 63,
    "trial_length": 10,
    "click_num": 6,
    "RT": 712,
    "action": 0,
    "reward": 3.6
  },
  {
    "phase": "TASK",
    "condition": "Cond1",
    "trial_num": 63,
    "trial_length": 10,
    "click_num": 7,
    "RT": 681,
    "action": 0,
    "reward": 3.6
  },
  {
    "phase": "TASK",
    "condition": "Cond1",
    "trial_num": 63,
    "trial_length": 10,
    "click_num": 8,
    "RT": 705,
    "action": 0,
    "reward": 3.6
  },
  {
    "phase": "TASK",
    "condition": "Cond1",
    "trial_num": 63,
    "trial_length": 10,
    "click_num": 9,
    "RT": 687,
    "action": 0,
    "reward": 3.6
  },
  {
    "phase": "TASK",
    "condition": "Cond1",
    "trial_num": 63,
    "trial_length": 10,
    "click_num": 10,
    "RT": 687,
    "action": 0,
    "reward": 3.6
  },
  {
    "phase": "TASK",
    "condition": "Cond1",
    "trial_num": 64,
    "trial_length": 9,
    "click_num": 1,
    "RT": 1151,
    "action": 1,
    "reward": 3.3
  },
  {
    "phase": "TASK",
    "condition": "Cond1",
    "trial_num": 64,
    "trial_length": 9,
    "click_num": 2,
    "RT": 1416,
    "action": 0,
    "reward": 3.3
  },
  {
    "phase": "TASK",
    "condition": "Cond1",
    "trial_num": 64,
    "trial_length": 9,
    "click_num": 3,
    "RT": 1375,
    "action": 0,
    "reward": 3.3
  },
  {
    "phase": "TASK",
    "condition": "Cond1",
    "trial_num": 64,
    "trial_length": 9,
    "click_num": 4,
    "RT": 603,
    "action": 0,
    "reward": 3.3
  },
  {
    "phase": "TASK",
    "condition": "Cond1",
    "trial_num": 64,
    "trial_length": 9,
    "click_num": 5,
    "RT": 637,
    "action": 0,
    "reward": 3.3
  },
  {
    "phase": "TASK",
    "condition": "Cond1",
    "trial_num": 64,
    "trial_length": 9,
    "click_num": 6,
    "RT": 632,
    "action": 0,
    "reward": 3.3
  },
  {
    "phase": "TASK",
    "condition": "Cond1",
    "trial_num": 64,
    "trial_length": 9,
    "click_num": 7,
    "RT": 711,
    "action": 0,
    "reward": 3.3
  },
  {
    "phase": "TASK",
    "condition": "Cond1",
    "trial_num": 64,
    "trial_length": 9,
    "click_num": 8,
    "RT": 642,
    "action": 0,
    "reward": 3.3
  },
  {
    "phase": "TASK",
    "condition": "Cond1",
    "trial_num": 64,
    "trial_length": 9,
    "click_num": 9,
    "RT": 735,
    "action": 0,
    "reward": 3.3
  },
  {
    "phase": "TASK",
    "condition": "Cond1",
    "trial_num": 65,
    "trial_length": 6,
    "click_num": 1,
    "RT": 1353,
    "action": 1,
    "reward": 2.9
  },
  {
    "phase": "TASK",
    "condition": "Cond1",
    "trial_num": 65,
    "trial_length": 6,
    "click_num": 2,
    "RT": 1853,
    "action": 1,
    "reward": 2.5
  },
  {
    "phase": "TASK",
    "condition": "Cond1",
    "trial_num": 65,
    "trial_length": 6,
    "click_num": 3,
    "RT": 1296,
    "action": 1,
    "reward": 2.5
  },
  {
    "phase": "TASK",
    "condition": "Cond1",
    "trial_num": 65,
    "trial_length": 6,
    "click_num": 4,
    "RT": 1103,
    "action": 1,
    "reward": 3.1
  },
  {
    "phase": "TASK",
    "condition": "Cond1",
    "trial_num": 65,
    "trial_length": 6,
    "click_num": 5,
    "RT": 1569,
    "action": 0,
    "reward": 3.1
  },
  {
    "phase": "TASK",
    "condition": "Cond1",
    "trial_num": 65,
    "trial_length": 6,
    "click_num": 6,
    "RT": 1336,
    "action": 0,
    "reward": 3.1
  },
  {
    "phase": "TASK",
    "condition": "Cond1",
    "trial_num": 66,
    "trial_length": 5,
    "click_num": 1,
    "RT": 1214,
    "action": 1,
    "reward": 2.9
  },
  {
    "phase": "TASK",
    "condition": "Cond1",
    "trial_num": 66,
    "trial_length": 5,
    "click_num": 2,
    "RT": 1177,
    "action": 1,
    "reward": 3.7
  },
  {
    "phase": "TASK",
    "condition": "Cond1",
    "trial_num": 66,
    "trial_length": 5,
    "click_num": 3,
    "RT": 1119,
    "action": 0,
    "reward": 3.7
  },
  {
    "phase": "TASK",
    "condition": "Cond1",
    "trial_num": 66,
    "trial_length": 5,
    "click_num": 4,
    "RT": 912,
    "action": 0,
    "reward": 3.7
  },
  {
    "phase": "TASK",
    "condition": "Cond1",
    "trial_num": 66,
    "trial_length": 5,
    "click_num": 5,
    "RT": 658,
    "action": 0,
    "reward": 3.7
  },
  {
    "phase": "TASK",
    "condition": "Cond1",
    "trial_num": 67,
    "trial_length": 9,
    "click_num": 1,
    "RT": 1142,
    "action": 1,
    "reward": 3.4
  },
  {
    "phase": "TASK",
    "condition": "Cond1",
    "trial_num": 67,
    "trial_length": 9,
    "click_num": 2,
    "RT": 1184,
    "action": 0,
    "reward": 3.4
  },
  {
    "phase": "TASK",
    "condition": "Cond1",
    "trial_num": 67,
    "trial_length": 9,
    "click_num": 3,
    "RT": 639,
    "action": 0,
    "reward": 3.4
  },
  {
    "phase": "TASK",
    "condition": "Cond1",
    "trial_num": 67,
    "trial_length": 9,
    "click_num": 4,
    "RT": 675,
    "action": 0,
    "reward": 3.4
  },
  {
    "phase": "TASK",
    "condition": "Cond1",
    "trial_num": 67,
    "trial_length": 9,
    "click_num": 5,
    "RT": 653,
    "action": 0,
    "reward": 3.4
  },
  {
    "phase": "TASK",
    "condition": "Cond1",
    "trial_num": 67,
    "trial_length": 9,
    "click_num": 6,
    "RT": 633,
    "action": 0,
    "reward": 3.4
  },
  {
    "phase": "TASK",
    "condition": "Cond1",
    "trial_num": 67,
    "trial_length": 9,
    "click_num": 7,
    "RT": 614,
    "action": 0,
    "reward": 3.4
  },
  {
    "phase": "TASK",
    "condition": "Cond1",
    "trial_num": 67,
    "trial_length": 9,
    "click_num": 8,
    "RT": 1146,
    "action": 0,
    "reward": 3.4
  },
  {
    "phase": "TASK",
    "condition": "Cond1",
    "trial_num": 67,
    "trial_length": 9,
    "click_num": 9,
    "RT": 719,
    "action": 0,
    "reward": 3.4
  },
  {
    "phase": "TASK",
    "condition": "Cond1",
    "trial_num": 68,
    "trial_length": 9,
    "click_num": 1,
    "RT": 1200,
    "action": 1,
    "reward": 3.8
  },
  {
    "phase": "TASK",
    "condition": "Cond1",
    "trial_num": 68,
    "trial_length": 9,
    "click_num": 2,
    "RT": 1254,
    "action": 0,
    "reward": 3.8
  },
  {
    "phase": "TASK",
    "condition": "Cond1",
    "trial_num": 68,
    "trial_length": 9,
    "click_num": 3,
    "RT": 1571,
    "action": 0,
    "reward": 3.8
  },
  {
    "phase": "TASK",
    "condition": "Cond1",
    "trial_num": 68,
    "trial_length": 9,
    "click_num": 4,
    "RT": 781,
    "action": 0,
    "reward": 3.8
  },
  {
    "phase": "TASK",
    "condition": "Cond1",
    "trial_num": 68,
    "trial_length": 9,
    "click_num": 5,
    "RT": 665,
    "action": 0,
    "reward": 3.8
  },
  {
    "phase": "TASK",
    "condition": "Cond1",
    "trial_num": 68,
    "trial_length": 9,
    "click_num": 6,
    "RT": 712,
    "action": 0,
    "reward": 3.8
  },
  {
    "phase": "TASK",
    "condition": "Cond1",
    "trial_num": 68,
    "trial_length": 9,
    "click_num": 7,
    "RT": 712,
    "action": 0,
    "reward": 3.8
  },
  {
    "phase": "TASK",
    "condition": "Cond1",
    "trial_num": 68,
    "trial_length": 9,
    "click_num": 8,
    "RT": 687,
    "action": 0,
    "reward": 3.8
  },
  {
    "phase": "TASK",
    "condition": "Cond1",
    "trial_num": 68,
    "trial_length": 9,
    "click_num": 9,
    "RT": 672,
    "action": 0,
    "reward": 3.8
  },
  {
    "phase": "TASK",
    "condition": "Cond1",
    "trial_num": 69,
    "trial_length": 5,
    "click_num": 1,
    "RT": 1176,
    "action": 1,
    "reward": 2.9
  },
  {
    "phase": "TASK",
    "condition": "Cond1",
    "trial_num": 69,
    "trial_length": 5,
    "click_num": 2,
    "RT": 1598,
    "action": 1,
    "reward": 3.1
  },
  {
    "phase": "TASK",
    "condition": "Cond1",
    "trial_num": 69,
    "trial_length": 5,
    "click_num": 3,
    "RT": 1335,
    "action": 0,
    "reward": 3.1
  },
  {
    "phase": "TASK",
    "condition": "Cond1",
    "trial_num": 69,
    "trial_length": 5,
    "click_num": 4,
    "RT": 1192,
    "action": 0,
    "reward": 3.1
  },
  {
    "phase": "TASK",
    "condition": "Cond1",
    "trial_num": 69,
    "trial_length": 5,
    "click_num": 5,
    "RT": 584,
    "action": 0,
    "reward": 3.1
  },
  {
    "phase": "TASK",
    "condition": "Cond1",
    "trial_num": 70,
    "trial_length": 6,
    "click_num": 1,
    "RT": 1598,
    "action": 1,
    "reward": 2.9
  },
  {
    "phase": "TASK",
    "condition": "Cond1",
    "trial_num": 70,
    "trial_length": 6,
    "click_num": 2,
    "RT": 1151,
    "action": 1,
    "reward": 4
  },
  {
    "phase": "TASK",
    "condition": "Cond1",
    "trial_num": 70,
    "trial_length": 6,
    "click_num": 3,
    "RT": 1480,
    "action": 0,
    "reward": 4
  },
  {
    "phase": "TASK",
    "condition": "Cond1",
    "trial_num": 70,
    "trial_length": 6,
    "click_num": 4,
    "RT": 1368,
    "action": 0,
    "reward": 4
  },
  {
    "phase": "TASK",
    "condition": "Cond1",
    "trial_num": 70,
    "trial_length": 6,
    "click_num": 5,
    "RT": 1122,
    "action": 0,
    "reward": 4
  },
  {
    "phase": "TASK",
    "condition": "Cond1",
    "trial_num": 70,
    "trial_length": 6,
    "click_num": 6,
    "RT": 801,
    "action": 0,
    "reward": 4
  },
  {
    "phase": "TASK",
    "condition": "Cond1",
    "trial_num": 71,
    "trial_length": 7,
    "click_num": 1,
    "RT": 1870,
    "action": 1,
    "reward": 3.1
  },
  {
    "phase": "TASK",
    "condition": "Cond1",
    "trial_num": 71,
    "trial_length": 7,
    "click_num": 2,
    "RT": 2240,
    "action": 1,
    "reward": 3.5
  },
  {
    "phase": "TASK",
    "condition": "Cond1",
    "trial_num": 71,
    "trial_length": 7,
    "click_num": 3,
    "RT": 960,
    "action": 0,
    "reward": 3.5
  },
  {
    "phase": "TASK",
    "condition": "Cond1",
    "trial_num": 71,
    "trial_length": 7,
    "click_num": 4,
    "RT": 634,
    "action": 0,
    "reward": 3.5
  },
  {
    "phase": "TASK",
    "condition": "Cond1",
    "trial_num": 71,
    "trial_length": 7,
    "click_num": 5,
    "RT": 663,
    "action": 0,
    "reward": 3.5
  },
  {
    "phase": "TASK",
    "condition": "Cond1",
    "trial_num": 71,
    "trial_length": 7,
    "click_num": 6,
    "RT": 863,
    "action": 0,
    "reward": 3.5
  },
  {
    "phase": "TASK",
    "condition": "Cond1",
    "trial_num": 71,
    "trial_length": 7,
    "click_num": 7,
    "RT": 983,
    "action": 0,
    "reward": 3.5
  },
  {
    "phase": "TASK",
    "condition": "Cond1",
    "trial_num": 72,
    "trial_length": 10,
    "click_num": 1,
    "RT": 1512,
    "action": 1,
    "reward": 3.2
  },
  {
    "phase": "TASK",
    "condition": "Cond1",
    "trial_num": 72,
    "trial_length": 10,
    "click_num": 2,
    "RT": 2156,
    "action": 1,
    "reward": 3.1
  },
  {
    "phase": "TASK",
    "condition": "Cond1",
    "trial_num": 72,
    "trial_length": 10,
    "click_num": 3,
    "RT": 1185,
    "action": 1,
    "reward": 2.8
  },
  {
    "phase": "TASK",
    "condition": "Cond1",
    "trial_num": 72,
    "trial_length": 10,
    "click_num": 4,
    "RT": 1539,
    "action": 1,
    "reward": 2
  },
  {
    "phase": "TASK",
    "condition": "Cond1",
    "trial_num": 72,
    "trial_length": 10,
    "click_num": 5,
    "RT": 1117,
    "action": 0,
    "reward": 3.2
  },
  {
    "phase": "TASK",
    "condition": "Cond1",
    "trial_num": 72,
    "trial_length": 10,
    "click_num": 6,
    "RT": 792,
    "action": 0,
    "reward": 3.2
  },
  {
    "phase": "TASK",
    "condition": "Cond1",
    "trial_num": 72,
    "trial_length": 10,
    "click_num": 7,
    "RT": 1551,
    "action": 0,
    "reward": 3.2
  },
  {
    "phase": "TASK",
    "condition": "Cond1",
    "trial_num": 72,
    "trial_length": 10,
    "click_num": 8,
    "RT": 1098,
    "action": 0,
    "reward": 3.2
  },
  {
    "phase": "TASK",
    "condition": "Cond1",
    "trial_num": 72,
    "trial_length": 10,
    "click_num": 9,
    "RT": 934,
    "action": 0,
    "reward": 3.2
  },
  {
    "phase": "TASK",
    "condition": "Cond1",
    "trial_num": 72,
    "trial_length": 10,
    "click_num": 10,
    "RT": 1184,
    "action": 0,
    "reward": 3.2
  },
  {
    "phase": "TASK",
    "condition": "Cond1",
    "trial_num": 73,
    "trial_length": 9,
    "click_num": 1,
    "RT": 1468,
    "action": 1,
    "reward": 2.9
  },
  {
    "phase": "TASK",
    "condition": "Cond1",
    "trial_num": 73,
    "trial_length": 9,
    "click_num": 2,
    "RT": 1216,
    "action": 1,
    "reward": 3.1
  },
  {
    "phase": "TASK",
    "condition": "Cond1",
    "trial_num": 73,
    "trial_length": 9,
    "click_num": 3,
    "RT": 2008,
    "action": 1,
    "reward": 3.5
  },
  {
    "phase": "TASK",
    "condition": "Cond1",
    "trial_num": 73,
    "trial_length": 9,
    "click_num": 4,
    "RT": 991,
    "action": 0,
    "reward": 3.5
  },
  {
    "phase": "TASK",
    "condition": "Cond1",
    "trial_num": 73,
    "trial_length": 9,
    "click_num": 5,
    "RT": 720,
    "action": 0,
    "reward": 3.5
  },
  {
    "phase": "TASK",
    "condition": "Cond1",
    "trial_num": 73,
    "trial_length": 9,
    "click_num": 6,
    "RT": 682,
    "action": 0,
    "reward": 3.5
  },
  {
    "phase": "TASK",
    "condition": "Cond1",
    "trial_num": 73,
    "trial_length": 9,
    "click_num": 7,
    "RT": 688,
    "action": 0,
    "reward": 3.5
  },
  {
    "phase": "TASK",
    "condition": "Cond1",
    "trial_num": 73,
    "trial_length": 9,
    "click_num": 8,
    "RT": 943,
    "action": 0,
    "reward": 3.5
  },
  {
    "phase": "TASK",
    "condition": "Cond1",
    "trial_num": 73,
    "trial_length": 9,
    "click_num": 9,
    "RT": 704,
    "action": 0,
    "reward": 3.5
  },
  {
    "phase": "TASK",
    "condition": "Cond1",
    "trial_num": 74,
    "trial_length": 8,
    "click_num": 1,
    "RT": 1487,
    "action": 1,
    "reward": 3.6
  },
  {
    "phase": "TASK",
    "condition": "Cond1",
    "trial_num": 74,
    "trial_length": 8,
    "click_num": 2,
    "RT": 1271,
    "action": 0,
    "reward": 3.6
  },
  {
    "phase": "TASK",
    "condition": "Cond1",
    "trial_num": 74,
    "trial_length": 8,
    "click_num": 3,
    "RT": 769,
    "action": 0,
    "reward": 3.6
  },
  {
    "phase": "TASK",
    "condition": "Cond1",
    "trial_num": 74,
    "trial_length": 8,
    "click_num": 4,
    "RT": 609,
    "action": 0,
    "reward": 3.6
  },
  {
    "phase": "TASK",
    "condition": "Cond1",
    "trial_num": 74,
    "trial_length": 8,
    "click_num": 5,
    "RT": 693,
    "action": 0,
    "reward": 3.6
  },
  {
    "phase": "TASK",
    "condition": "Cond1",
    "trial_num": 74,
    "trial_length": 8,
    "click_num": 6,
    "RT": 641,
    "action": 0,
    "reward": 3.6
  },
  {
    "phase": "TASK",
    "condition": "Cond1",
    "trial_num": 74,
    "trial_length": 8,
    "click_num": 7,
    "RT": 639,
    "action": 0,
    "reward": 3.6
  },
  {
    "phase": "TASK",
    "condition": "Cond1",
    "trial_num": 74,
    "trial_length": 8,
    "click_num": 8,
    "RT": 641,
    "action": 0,
    "reward": 3.6
  },
  {
    "phase": "TASK",
    "condition": "Cond1",
    "trial_num": 75,
    "trial_length": 5,
    "click_num": 1,
    "RT": 1230,
    "action": 1,
    "reward": 2.3
  },
  {
    "phase": "TASK",
    "condition": "Cond1",
    "trial_num": 75,
    "trial_length": 5,
    "click_num": 2,
    "RT": 1087,
    "action": 1,
    "reward": 2.8
  },
  {
    "phase": "TASK",
    "condition": "Cond1",
    "trial_num": 75,
    "trial_length": 5,
    "click_num": 3,
    "RT": 1026,
    "action": 1,
    "reward": 3.6
  },
  {
    "phase": "TASK",
    "condition": "Cond1",
    "trial_num": 75,
    "trial_length": 5,
    "click_num": 4,
    "RT": 943,
    "action": 0,
    "reward": 3.6
  },
  {
    "phase": "TASK",
    "condition": "Cond1",
    "trial_num": 75,
    "trial_length": 5,
    "click_num": 5,
    "RT": 576,
    "action": 0,
    "reward": 3.6
  },
  {
    "phase": "TASK",
    "condition": "Cond1",
    "trial_num": 76,
    "trial_length": 8,
    "click_num": 1,
    "RT": 1059,
    "action": 1,
    "reward": 2.8
  },
  {
    "phase": "TASK",
    "condition": "Cond1",
    "trial_num": 76,
    "trial_length": 8,
    "click_num": 2,
    "RT": 1095,
    "action": 1,
    "reward": 3.9
  },
  {
    "phase": "TASK",
    "condition": "Cond1",
    "trial_num": 76,
    "trial_length": 8,
    "click_num": 3,
    "RT": 1848,
    "action": 0,
    "reward": 3.9
  },
  {
    "phase": "TASK",
    "condition": "Cond1",
    "trial_num": 76,
    "trial_length": 8,
    "click_num": 4,
    "RT": 1040,
    "action": 0,
    "reward": 3.9
  },
  {
    "phase": "TASK",
    "condition": "Cond1",
    "trial_num": 76,
    "trial_length": 8,
    "click_num": 5,
    "RT": 1312,
    "action": 0,
    "reward": 3.9
  },
  {
    "phase": "TASK",
    "condition": "Cond1",
    "trial_num": 76,
    "trial_length": 8,
    "click_num": 6,
    "RT": 569,
    "action": 0,
    "reward": 3.9
  },
  {
    "phase": "TASK",
    "condition": "Cond1",
    "trial_num": 76,
    "trial_length": 8,
    "click_num": 7,
    "RT": 587,
    "action": 0,
    "reward": 3.9
  },
  {
    "phase": "TASK",
    "condition": "Cond1",
    "trial_num": 76,
    "trial_length": 8,
    "click_num": 8,
    "RT": 1596,
    "action": 0,
    "reward": 3.9
  },
  {
    "phase": "TASK",
    "condition": "Cond1",
    "trial_num": 77,
    "trial_length": 7,
    "click_num": 1,
    "RT": 1135,
    "action": 1,
    "reward": 3.5
  },
  {
    "phase": "TASK",
    "condition": "Cond1",
    "trial_num": 77,
    "trial_length": 7,
    "click_num": 2,
    "RT": 1158,
    "action": 0,
    "reward": 3.5
  },
  {
    "phase": "TASK",
    "condition": "Cond1",
    "trial_num": 77,
    "trial_length": 7,
    "click_num": 3,
    "RT": 1296,
    "action": 0,
    "reward": 3.5
  },
  {
    "phase": "TASK",
    "condition": "Cond1",
    "trial_num": 77,
    "trial_length": 7,
    "click_num": 4,
    "RT": 673,
    "action": 0,
    "reward": 3.5
  },
  {
    "phase": "TASK",
    "condition": "Cond1",
    "trial_num": 77,
    "trial_length": 7,
    "click_num": 5,
    "RT": 630,
    "action": 0,
    "reward": 3.5
  },
  {
    "phase": "TASK",
    "condition": "Cond1",
    "trial_num": 77,
    "trial_length": 7,
    "click_num": 6,
    "RT": 1425,
    "action": 0,
    "reward": 3.5
  },
  {
    "phase": "TASK",
    "condition": "Cond1",
    "trial_num": 77,
    "trial_length": 7,
    "click_num": 7,
    "RT": 739,
    "action": 0,
    "reward": 3.5
  },
  {
    "phase": "TASK",
    "condition": "Cond1",
    "trial_num": 78,
    "trial_length": 9,
    "click_num": 1,
    "RT": 2158,
    "action": 1,
    "reward": 2.7
  },
  {
    "phase": "TASK",
    "condition": "Cond1",
    "trial_num": 78,
    "trial_length": 9,
    "click_num": 2,
    "RT": 1802,
    "action": 1,
    "reward": 3.3
  },
  {
    "phase": "TASK",
    "condition": "Cond1",
    "trial_num": 78,
    "trial_length": 9,
    "click_num": 3,
    "RT": 2286,
    "action": 1,
    "reward": 2.7
  },
  {
    "phase": "TASK",
    "condition": "Cond1",
    "trial_num": 78,
    "trial_length": 9,
    "click_num": 4,
    "RT": 1137,
    "action": 1,
    "reward": 3.3
  },
  {
    "phase": "TASK",
    "condition": "Cond1",
    "trial_num": 78,
    "trial_length": 9,
    "click_num": 5,
    "RT": 1632,
    "action": 1,
    "reward": 3.3
  },
  {
    "phase": "TASK",
    "condition": "Cond1",
    "trial_num": 78,
    "trial_length": 9,
    "click_num": 6,
    "RT": 1872,
    "action": 1,
    "reward": 2.7
  },
  {
    "phase": "TASK",
    "condition": "Cond1",
    "trial_num": 78,
    "trial_length": 9,
    "click_num": 7,
    "RT": 1552,
    "action": 0,
    "reward": 3.3
  },
  {
    "phase": "TASK",
    "condition": "Cond1",
    "trial_num": 78,
    "trial_length": 9,
    "click_num": 8,
    "RT": 680,
    "action": 0,
    "reward": 3.3
  },
  {
    "phase": "TASK",
    "condition": "Cond1",
    "trial_num": 78,
    "trial_length": 9,
    "click_num": 9,
    "RT": 631,
    "action": 0,
    "reward": 3.3
  },
  {
    "phase": "TASK",
    "condition": "Cond1",
    "trial_num": 79,
    "trial_length": 5,
    "click_num": 1,
    "RT": 1338,
    "action": 1,
    "reward": 2.9
  },
  {
    "phase": "TASK",
