[
  {
    "phase": "TASK",
    "condition": "Cond1",
    "trial_num": 1,
    "trial_length": 9,
    "click_num": 1,
    "RT": 9288,
    "action": 1,
    "reward": 3.4
  },
  {
    "phase": "TASK",
    "condition": "Cond1",
    "trial_num": 1,
    "trial_length": 9,
    "click_num": 2,
    "RT": 7776,
    "action": 1,
    "reward": 2.7
  },
  {
    "phase": "TASK",
    "condition": "Cond1",
    "trial_num": 1,
    "trial_length": 9,
    "click_num": 3,
    "RT": 11310,
    "action": 1,
    "reward": 3.9
  },
  {
    "phase": "TASK",
    "condition": "Cond1",
    "trial_num": 1,
    "trial_length": 9,
    "click_num": 4,
    "RT": 5023,
    "action": 0,
    "reward": 3.9
  },
  {
    "phase": "TASK",
    "condition": "Cond1",
    "trial_num": 1,
    "trial_length": 9,
    "click_num": 5,
    "RT": 7088,
    "action": 1,
    "reward": 3.7
  },
  {
    "phase": "TASK",
    "condition": "Cond1",
    "trial_num": 1,
    "trial_length": 9,
    "click_num": 6,
    "RT": 3273,
    "action": 0,
    "reward": 3.9
  },
  {
    "phase": "TASK",
    "condition": "Cond1",
    "trial_num": 1,
    "trial_length": 9,
    "click_num": 7,
    "RT": 2144,
    "action": 0,
    "reward": 3.9
  },
  {
    "phase": "TASK",
    "condition": "Cond1",
    "trial_num": 1,
    "trial_length": 9,
    "click_num": 8,
    "RT": 1695,
    "action": 0,
    "reward": 3.9
  },
  {
    "phase": "TASK",
    "condition": "Cond1",
    "trial_num": 1,
    "trial_length": 9,
    "click_num": 9,
    "RT": 2528,
    "action": 0,
    "reward": 3.9
  },
  {
    "phase": "TASK",
    "condition": "Cond1",
    "trial_num": 2,
    "trial_length": 8,
    "click_num": 1,
    "RT": 3948,
    "action": 1,
    "reward": 2.9
  },
  {
    "phase": "TASK",
    "condition": "Cond1",
    "trial_num": 2,
    "trial_length": 8,
    "click_num": 2,
    "RT": 2714,
    "action": 1,
    "reward": 2.3
  },
  {
    "phase": "TASK",
    "condition": "Cond1",
    "trial_num": 2,
    "trial_length": 8,
    "click_num": 3,
    "RT": 4273,
    "action": 1,
    "reward": 2.4
  },
  {
    "phase": "TASK",
    "condition": "Cond1",
    "trial_num": 2,
    "trial_length": 8,
    "click_num": 4,
    "RT": 4032,
    "action": 0,
    "reward": 2.9
  },
  {
    "phase": "TASK",
    "condition": "Cond1",
    "trial_num": 2,
    "trial_length": 8,
    "click_num": 5,
    "RT": 2694,
    "action": 0,
    "reward": 2.9
  },
  {
    "phase": "TASK",
    "condition": "Cond1",
    "trial_num": 2,
    "trial_length": 8,
    "click_num": 6,
    "RT": 1465,
    "action": 1,
    "reward": 2.8
  },
  {
    "phase": "TASK",
    "condition": "Cond1",
    "trial_num": 2,
    "trial_length": 8,
    "click_num": 7,
    "RT": 2455,
    "action": 0,
    "reward": 2.9
  },
  {
    "phase": "TASK",
    "condition": "Cond1",
    "trial_num": 2,
    "trial_length": 8,
    "click_num": 8,
    "RT": 1456,
    "action": 0,
    "reward": 2.9
  },
  {
    "phase": "TASK",
    "condition": "Cond1",
    "trial_num": 3,
    "trial_length": 8,
    "click_num": 1,
    "RT": 2043,
    "action": 1,
    "reward": 3.5
  },
  {
    "phase": "TASK",
    "condition": "Cond1",
    "trial_num": 3,
    "trial_length": 8,
    "click_num": 2,
    "RT": 4928,
    "action": 0,
    "reward": 3.5
  },
  {
    "phase": "TASK",
    "condition": "Cond1",
    "trial_num": 3,
    "trial_length": 8,
    "click_num": 3,
    "RT": 8640,
    "action": 1,
    "reward": 3.8
  },
  {
    "phase": "TASK",
    "condition": "Cond1",
    "trial_num": 3,
    "trial_length": 8,
    "click_num": 4,
    "RT": 4687,
    "action": 0,
    "reward": 3.8
  },
  {
    "phase": "TASK",
    "condition": "Cond1",
    "trial_num": 3,
    "trial_length": 8,
    "click_num": 5,
    "RT": 2072,
    "action": 1,
    "reward": 2.8
  },
  {
    "phase": "TASK",
    "condition": "Cond1",
    "trial_num": 3,
    "trial_length": 8,
    "click_num": 6,
    "RT": 1903,
    "action": 0,
    "reward": 3.8
  },
  {
    "phase": "TASK",
    "condition": "Cond1",
    "trial_num": 3,
    "trial_length": 8,
    "click_num": 7,
    "RT": 1145,
    "action": 0,
    "reward": 3.8
  },
  {
    "phase": "TASK",
    "condition": "Cond1",
    "trial_num": 3,
    "trial_length": 8,
    "click_num": 8,
    "RT": 1032,
    "action": 0,
    "reward": 3.8
  },
  {
    "phase": "TASK",
    "condition": "Cond1",
    "trial_num": 4,
    "trial_length": 9,
    "click_num": 1,
    "RT": 2040,
    "action": 1,
    "reward": 2.4
  },
  {
    "phase": "TASK",
    "condition": "Cond1",
    "trial_num": 4,
    "trial_length": 9,
    "click_num": 2,
    "RT": 3791,
    "action": 1,
    "reward": 2.7
  },
  {
    "phase": "TASK",
    "condition": "Cond1",
    "trial_num": 4,
    "trial_length": 9,
    "click_num": 3,
    "RT": 1736,
    "action": 1,
    "reward": 2.5
  },
  {
    "phase": "TASK",
    "condition": "Cond1",
    "trial_num": 4,
    "trial_length": 9,
    "click_num": 4,
    "RT": 1623,
    "action": 1,
    "reward": 4
  },
  {
    "phase": "TASK",
    "condition": "Cond1",
    "trial_num": 4,
    "trial_length": 9,
    "click_num": 5,
    "RT": 2312,
    "action": 0,
    "reward": 4
  },
  {
    "phase": "TASK",
    "condition": "Cond1",
    "trial_num": 4,
    "trial_length": 9,
    "click_num": 6,
    "RT": 872,
    "action": 0,
    "reward": 4
  },
  {
    "phase": "TASK",
    "condition": "Cond1",
    "trial_num": 4,
    "trial_length": 9,
    "click_num": 7,
    "RT": 936,
    "action": 0,
    "reward": 4
  },
  {
    "phase": "TASK",
    "condition": "Cond1",
    "trial_num": 4,
    "trial_length": 9,
    "click_num": 8,
    "RT": 720,
    "action": 0,
    "reward": 4
  },
  {
    "phase": "TASK",
    "condition": "Cond1",
    "trial_num": 4,
    "trial_length": 9,
    "click_num": 9,
    "RT": 761,
    "action": 0,
    "reward": 4
  },
  {
    "phase": "TASK",
    "condition": "Cond1",
    "trial_num": 5,
    "trial_length": 10,
    "click_num": 1,
    "RT": 1593,
    "action": 1,
    "reward": 3.7
  },
  {
    "phase": "TASK",
    "condition": "Cond1",
    "trial_num": 5,
    "trial_length": 10,
    "click_num": 2,
    "RT": 2200,
    "action": 1,
    "reward": 2.6
  },
  {
    "phase": "TASK",
    "condition": "Cond1",
    "trial_num": 5,
    "trial_length": 10,
    "click_num": 3,
    "RT": 1894,
    "action": 0,
    "reward": 3.7
  },
  {
    "phase": "TASK",
    "condition": "Cond1",
    "trial_num": 5,
    "trial_length": 10,
    "click_num": 4,
    "RT": 913,
    "action": 0,
    "reward": 3.7
  },
  {
    "phase": "TASK",
    "condition": "Cond1",
    "trial_num": 5,
    "trial_length": 10,
    "click_num": 5,
    "RT": 808,
    "action": 0,
    "reward": 3.7
  },
  {
    "phase": "TASK",
    "condition": "Cond1",
    "trial_num": 5,
    "trial_length": 10,
    "click_num": 6,
    "RT": 1000,
    "action": 0,
    "reward": 3.7
  },
  {
    "phase": "TASK",
    "condition": "Cond1",
    "trial_num": 5,
    "trial_length": 10,
    "click_num": 7,
    "RT": 913,
    "action": 0,
    "reward": 3.7
  },
  {
    "phase": "TASK",
    "condition": "Cond1",
    "trial_num": 5,
    "trial_length": 10,
    "click_num": 8,
    "RT": 937,
    "action": 0,
    "reward": 3.7
  },
  {
    "phase": "TASK",
    "condition": "Cond1",
    "trial_num": 5,
    "trial_length": 10,
    "click_num": 9,
    "RT": 911,
    "action": 0,
    "reward": 3.7
  },
  {
    "phase": "TASK",
    "condition": "Cond1",
    "trial_num": 5,
    "trial_length": 10,
    "click_num": 10,
    "RT": 919,
    "action": 0,
    "reward": 3.7
  },
  {
    "phase": "TASK",
    "condition": "Cond1",
    "trial_num": 6,
    "trial_length": 5,
    "click_num": 1,
    "RT": 1672,
    "action": 1,
    "reward": 3.5
  },
  {
    "phase": "TASK",
    "condition": "Cond1",
    "trial_num": 6,
    "trial_length": 5,
    "click_num": 2,
    "RT": 2349,
    "action": 1,
    "reward": 2.6
  },
  {
    "phase": "TASK",
    "condition": "Cond1",
    "trial_num": 6,
    "trial_length": 5,
    "click_num": 3,
    "RT": 2449,
    "action": 1,
    "reward": 2.1
  },
  {
    "phase": "TASK",
    "condition": "Cond1",
    "trial_num": 6,
    "trial_length": 5,
    "click_num": 4,
    "RT": 1471,
    "action": 1,
    "reward": 2.4
  },
  {
    "phase": "TASK",
    "condition": "Cond1",
    "trial_num": 6,
    "trial_length": 5,
    "click_num": 5,
    "RT": 4360,
    "action": 0,
    "reward": 3.5
  },
  {
    "phase": "TASK",
    "condition": "Cond1",
    "trial_num": 7,
    "trial_length": 6,
    "click_num": 1,
    "RT": 2030,
    "action": 1,
    "reward": 2.5
  },
  {
    "phase": "TASK",
    "condition": "Cond1",
    "trial_num": 7,
    "trial_length": 6,
    "click_num": 2,
    "RT": 5328,
    "action": 1,
    "reward": 3.1
  },
  {
    "phase": "TASK",
    "condition": "Cond1",
    "trial_num": 7,
    "trial_length": 6,
    "click_num": 3,
    "RT": 1832,
    "action": 1,
    "reward": 3.3
  },
  {
    "phase": "TASK",
    "condition": "Cond1",
    "trial_num": 7,
    "trial_length": 6,
    "click_num": 4,
    "RT": 1712,
    "action": 1,
    "reward": 3
  },
  {
    "phase": "TASK",
    "condition": "Cond1",
    "trial_num": 7,
    "trial_length": 6,
    "click_num": 5,
    "RT": 3695,
    "action": 1,
    "reward": 2.8
  },
  {
    "phase": "TASK",
    "condition": "Cond1",
    "trial_num": 7,
    "trial_length": 6,
    "click_num": 6,
    "RT": 1704,
    "action": 0,
    "reward": 3.3
  },
  {
    "phase": "TASK",
    "condition": "Cond1",
    "trial_num": 8,
    "trial_length": 10,
    "click_num": 1,
    "RT": 1679,
    "action": 1,
    "reward": 2.6
  },
  {
    "phase": "TASK",
    "condition": "Cond1",
    "trial_num": 8,
    "trial_length": 10,
    "click_num": 2,
    "RT": 2128,
    "action": 1,
    "reward": 2.7
  },
  {
    "phase": "TASK",
    "condition": "Cond1",
    "trial_num": 8,
    "trial_length": 10,
    "click_num": 3,
    "RT": 1656,
    "action": 1,
    "reward": 3.3
  },
  {
    "phase": "TASK",
    "condition": "Cond1",
    "trial_num": 8,
    "trial_length": 10,
    "click_num": 4,
    "RT": 2072,
    "action": 1,
    "reward": 2.9
  },
  {
    "phase": "TASK",
    "condition": "Cond1",
    "trial_num": 8,
    "trial_length": 10,
    "click_num": 5,
    "RT": 1719,
    "action": 0,
    "reward": 3.3
  },
  {
    "phase": "TASK",
    "condition": "Cond1",
    "trial_num": 8,
    "trial_length": 10,
    "click_num": 6,
    "RT": 985,
    "action": 0,
    "reward": 3.3
  },
  {
    "phase": "TASK",
    "condition": "Cond1",
    "trial_num": 8,
    "trial_length": 10,
    "click_num": 7,
    "RT": 952,
    "action": 0,
    "reward": 3.3
  },
  {
    "phase": "TASK",
    "condition": "Cond1",
    "trial_num": 8,
    "trial_length": 10,
    "click_num": 8,
    "RT": 984,
    "action": 0,
    "reward": 3.3
  },
  {
    "phase": "TASK",
    "condition": "Cond1",
    "trial_num": 8,
    "trial_length": 10,
    "click_num": 9,
    "RT": 1120,
    "action": 1,
    "reward": 3.5
  },
  {
    "phase": "TASK",
    "condition": "Cond1",
    "trial_num": 8,
    "trial_length": 10,
    "click_num": 10,
    "RT": 2688,
    "action": 0,
    "reward": 3.5
  },
  {
    "phase": "TASK",
    "condition": "Cond1",
    "trial_num": 9,
    "trial_length": 8,
    "click_num": 1,
    "RT": 1410,
    "action": 1,
    "reward": 2.1
  },
  {
    "phase": "TASK",
    "condition": "Cond1",
    "trial_num": 9,
    "trial_length": 8,
    "click_num": 2,
    "RT": 1632,
    "action": 1,
    "reward": 3.2
  },
  {
    "phase": "TASK",
    "condition": "Cond1",
    "trial_num": 9,
    "trial_length": 8,
    "click_num": 3,
    "RT": 2702,
    "action": 0,
    "reward": 3.2
  },
  {
    "phase": "TASK",
    "condition": "Cond1",
    "trial_num": 9,
    "trial_length": 8,
    "click_num": 4,
    "RT": 883,
    "action": 1,
    "reward": 2.7
  },
  {
    "phase": "TASK",
    "condition": "Cond1",
    "trial_num": 9,
    "trial_length": 8,
    "click_num": 5,
    "RT": 1935,
    "action": 1,
    "reward": 3.2
  },
  {
    "phase": "TASK",
    "condition": "Cond1",
    "trial_num": 9,
    "trial_length": 8,
    "click_num": 6,
    "RT": 2761,
    "action": 1,
    "reward": 2.8
  },
  {
    "phase": "TASK",
    "condition": "Cond1",
    "trial_num": 9,
    "trial_length": 8,
    "click_num": 7,
    "RT": 1911,
    "action": 0,
    "reward": 3.2
  },
  {
    "phase": "TASK",
    "condition": "Cond1",
    "trial_num": 9,
    "trial_length": 8,
    "click_num": 8,
    "RT": 2091,
    "action": 1,
    "reward": 3.7
  },
  {
    "phase": "TASK",
    "condition": "Cond1",
    "trial_num": 10,
    "trial_length": 9,
    "click_num": 1,
    "RT": 1598,
    "action": 1,
    "reward": 1.9
  },
  {
    "phase": "TASK",
    "condition": "Cond1",
    "trial_num": 10,
    "trial_length": 9,
    "click_num": 2,
    "RT": 2099,
    "action": 1,
    "reward": 3.6
  },
  {
    "phase": "TASK",
    "condition": "Cond1",
    "trial_num": 10,
    "trial_length": 9,
    "click_num": 3,
    "RT": 1894,
    "action": 0,
    "reward": 3.6
  },
  {
    "phase": "TASK",
    "condition": "Cond1",
    "trial_num": 10,
    "trial_length": 9,
    "click_num": 4,
    "RT": 758,
    "action": 0,
    "reward": 3.6
  },
  {
    "phase": "TASK",
    "condition": "Cond1",
    "trial_num": 10,
    "trial_length": 9,
    "click_num": 5,
    "RT": 691,
    "action": 0,
    "reward": 3.6
  },
  {
    "phase": "TASK",
    "condition": "Cond1",
    "trial_num": 10,
    "trial_length": 9,
    "click_num": 6,
    "RT": 728,
    "action": 0,
    "reward": 3.6
  },
  {
    "phase": "TASK",
    "condition": "Cond1",
    "trial_num": 10,
    "trial_length": 9,
    "click_num": 7,
    "RT": 840,
    "action": 0,
    "reward": 3.6
  },
  {
    "phase": "TASK",
    "condition": "Cond1",
    "trial_num": 10,
    "trial_length": 9,
    "click_num": 8,
    "RT": 807,
    "action": 0,
    "reward": 3.6
  },
  {
    "phase": "TASK",
    "condition": "Cond1",
    "trial_num": 10,
    "trial_length": 9,
    "click_num": 9,
    "RT": 809,
    "action": 0,
    "reward": 3.6
  },
  {
    "phase": "TASK",
    "condition": "Cond1",
    "trial_num": 11,
    "trial_length": 7,
    "click_num": 1,
    "RT": 1591,
    "action": 1,
    "reward": 2.6
  },
  {
    "phase": "TASK",
    "condition": "Cond1",
    "trial_num": 11,
    "trial_length": 7,
    "click_num": 2,
    "RT": 2119,
    "action": 1,
    "reward": 1.4
  },
  {
    "phase": "TASK",
    "condition": "Cond1",
    "trial_num": 11,
    "trial_length": 7,
    "click_num": 3,
    "RT": 1808,
    "action": 1,
    "reward": 3.6
  },
  {
    "phase": "TASK",
    "condition": "Cond1",
    "trial_num": 11,
    "trial_length": 7,
    "click_num": 4,
    "RT": 1488,
    "action": 0,
    "reward": 3.6
  },
  {
    "phase": "TASK",
    "condition": "Cond1",
    "trial_num": 11,
    "trial_length": 7,
    "click_num": 5,
    "RT": 808,
    "action": 0,
    "reward": 3.6
  },
  {
    "phase": "TASK",
    "condition": "Cond1",
    "trial_num": 11,
    "trial_length": 7,
    "click_num": 6,
    "RT": 753,
    "action": 0,
    "reward": 3.6
  },
  {
    "phase": "TASK",
    "condition": "Cond1",
    "trial_num": 11,
    "trial_length": 7,
    "click_num": 7,
    "RT": 767,
    "action": 0,
    "reward": 3.6
  },
  {
    "phase": "TASK",
    "condition": "Cond1",
    "trial_num": 12,
    "trial_length": 8,
    "click_num": 1,
    "RT": 1944,
    "action": 1,
    "reward": 2.7
  },
  {
    "phase": "TASK",
    "condition": "Cond1",
    "trial_num": 12,
    "trial_length": 8,
    "click_num": 2,
    "RT": 1473,
    "action": 1,
    "reward": 2
  },
  {
    "phase": "TASK",
    "condition": "Cond1",
    "trial_num": 12,
    "trial_length": 8,
    "click_num": 3,
    "RT": 1293,
    "action": 1,
    "reward": 3.8
  },
  {
    "phase": "TASK",
    "condition": "Cond1",
    "trial_num": 12,
    "trial_length": 8,
    "click_num": 4,
    "RT": 1345,
    "action": 0,
    "reward": 3.8
  },
  {
    "phase": "TASK",
    "condition": "Cond1",
    "trial_num": 12,
    "trial_length": 8,
    "click_num": 5,
    "RT": 722,
    "action": 0,
    "reward": 3.8
  },
  {
    "phase": "TASK",
    "condition": "Cond1",
    "trial_num": 12,
    "trial_length": 8,
    "click_num": 6,
    "RT": 711,
    "action": 0,
    "reward": 3.8
  },
  {
    "phase": "TASK",
    "condition": "Cond1",
    "trial_num": 12,
    "trial_length": 8,
    "click_num": 7,
    "RT": 728,
    "action": 0,
    "reward": 3.8
  },
  {
    "phase": "TASK",
    "condition": "Cond1",
    "trial_num": 12,
    "trial_length": 8,
    "click_num": 8,
    "RT": 640,
    "action": 0,
    "reward": 3.8
  },
  {
    "phase": "TASK",
    "condition": "Cond1",
    "trial_num": 13,
    "trial_length": 10,
    "click_num": 1,
    "RT": 2143,
    "action": 1,
    "reward": 3.7
  },
  {
    "phase": "TASK",
    "condition": "Cond1",
    "trial_num": 13,
    "trial_length": 10,
    "click_num": 2,
    "RT": 1929,
    "action": 0,
    "reward": 3.7
  },
  {
    "phase": "TASK",
    "condition": "Cond1",
    "trial_num": 13,
    "trial_length": 10,
    "click_num": 3,
    "RT": 728,
    "action": 0,
    "reward": 3.7
  },
  {
    "phase": "TASK",
    "condition": "Cond1",
    "trial_num": 13,
    "trial_length": 10,
    "click_num": 4,
    "RT": 726,
    "action": 0,
    "reward": 3.7
  },
  {
    "phase": "TASK",
    "condition": "Cond1",
    "trial_num": 13,
    "trial_length": 10,
    "click_num": 5,
    "RT": 1465,
    "action": 0,
    "reward": 3.7
  },
  {
    "phase": "TASK",
    "condition": "Cond1",
    "trial_num": 13,
    "trial_length": 10,
    "click_num": 6,
    "RT": 916,
    "action": 0,
    "reward": 3.7
  },
  {
    "phase": "TASK",
    "condition": "Cond1",
    "trial_num": 13,
    "trial_length": 10,
    "click_num": 7,
    "RT": 1061,
    "action": 0,
    "reward": 3.7
  },
  {
    "phase": "TASK",
    "condition": "Cond1",
    "trial_num": 13,
    "trial_length": 10,
    "click_num": 8,
    "RT": 855,
    "action": 0,
    "reward": 3.7
  },
  {
    "phase": "TASK",
    "condition": "Cond1",
    "trial_num": 13,
    "trial_length": 10,
    "click_num": 9,
    "RT": 864,
    "action": 0,
    "reward": 3.7
  },
  {
    "phase": "TASK",
    "condition": "Cond1",
    "trial_num": 13,
    "trial_length": 10,
    "click_num": 10,
    "RT": 874,
    "action": 0,
    "reward": 3.7
  },
  {
    "phase": "TASK",
    "condition": "Cond1",
    "trial_num": 14,
    "trial_length": 10,
    "click_num": 1,
    "RT": 2124,
    "action": 1,
    "reward": 3.4
  },
  {
    "phase": "TASK",
    "condition": "Cond1",
    "trial_num": 14,
    "trial_length": 10,
    "click_num": 2,
    "RT": 1832,
    "action": 1,
    "reward": 2.9
  },
  {
    "phase": "TASK",
    "condition": "Cond1",
    "trial_num": 14,
    "trial_length": 10,
    "click_num": 3,
    "RT": 1849,
    "action": 0,
    "reward": 3.4
  },
  {
    "phase": "TASK",
    "condition": "Cond1",
    "trial_num": 14,
    "trial_length": 10,
    "click_num": 4,
    "RT": 2567,
    "action": 0,
    "reward": 3.4
  },
  {
    "phase": "TASK",
    "condition": "Cond1",
    "trial_num": 14,
    "trial_length": 10,
    "click_num": 5,
    "RT": 1504,
    "action": 0,
    "reward": 3.4
  },
  {
    "phase": "TASK",
    "condition": "Cond1",
    "trial_num": 14,
    "trial_length": 10,
    "click_num": 6,
    "RT": 799,
    "action": 0,
    "reward": 3.4
  },
  {
    "phase": "TASK",
    "condition": "Cond1",
    "trial_num": 14,
    "trial_length": 10,
    "click_num": 7,
    "RT": 962,
    "action": 1,
    "reward": 2.2
  },
  {
    "phase": "TASK",
    "condition": "Cond1",
    "trial_num": 14,
    "trial_length": 10,
    "click_num": 8,
    "RT": 1928,
    "action": 1,
    "reward": 2.1
  },
  {
    "phase": "TASK",
    "condition": "Cond1",
    "trial_num": 14,
    "trial_length": 10,
    "click_num": 9,
    "RT": 1406,
    "action": 0,
    "reward": 3.4
  },
  {
    "phase": "TASK",
    "condition": "Cond1",
    "trial_num": 14,
    "trial_length": 10,
    "click_num": 10,
    "RT": 834,
    "action": 0,
    "reward": 3.4
  },
  {
    "phase": "TASK",
    "condition": "Cond1",
    "trial_num": 15,
    "trial_length": 6,
    "click_num": 1,
    "RT": 2101,
    "action": 1,
    "reward": 2.7
  },
  {
    "phase": "TASK",
    "condition": "Cond1",
    "trial_num": 15,
    "trial_length": 6,
    "click_num": 2,
    "RT": 2137,
    "action": 1,
    "reward": 2.8
  },
  {
    "phase": "TASK",
    "condition": "Cond1",
    "trial_num": 15,
    "trial_length": 6,
    "click_num": 3,
    "RT": 1468,
    "action": 1,
    "reward": 2.5
  },
  {
    "phase": "TASK",
    "condition": "Cond1",
    "trial_num": 15,
    "trial_length": 6,
    "click_num": 4,
    "RT": 2988,
    "action": 1,
    "reward": 3.3
  },
  {
    "phase": "TASK",
    "condition": "Cond1",
    "trial_num": 15,
    "trial_length": 6,
    "click_num": 5,
    "RT": 3391,
    "action": 1,
    "reward": 3.4
  },
  {
    "phase": "TASK",
    "condition": "Cond1",
    "trial_num": 15,
    "trial_length": 6,
    "click_num": 6,
    "RT": 1872,
    "action": 0,
    "reward": 3.4
  },
  {
    "phase": "TASK",
    "condition": "Cond1",
    "trial_num": 16,
    "trial_length": 7,
    "click_num": 1,
    "RT": 1637,
    "action": 1,
    "reward": 3.6
  },
  {
    "phase": "TASK",
    "condition": "Cond1",
    "trial_num": 16,
    "trial_length": 7,
    "click_num": 2,
    "RT": 2256,
    "action": 0,
    "reward": 3.6
  },
  {
    "phase": "TASK",
    "condition": "Cond1",
    "trial_num": 16,
    "trial_length": 7,
    "click_num": 3,
    "RT": 848,
    "action": 0,
    "reward": 3.6
  },
  {
    "phase": "TASK",
    "condition": "Cond1",
    "trial_num": 16,
    "trial_length": 7,
    "click_num": 4,
    "RT": 881,
    "action": 0,
    "reward": 3.6
  },
  {
    "phase": "TASK",
    "condition": "Cond1",
    "trial_num": 16,
    "trial_length": 7,
    "click_num": 5,
    "RT": 751,
    "action": 0,
    "reward": 3.6
  },
  {
    "phase": "TASK",
    "condition": "Cond1",
    "trial_num": 16,
    "trial_length": 7,
    "click_num": 6,
    "RT": 744,
    "action": 0,
    "reward": 3.6
  },
  {
    "phase": "TASK",
    "condition": "Cond1",
    "trial_num": 16,
    "trial_length": 7,
    "click_num": 7,
    "RT": 711,
    "action": 0,
    "reward": 3.6
  },
  {
    "phase": "TASK",
    "condition": "Cond1",
    "trial_num": 17,
    "trial_length": 5,
    "click_num": 1,
    "RT": 1327,
    "action": 1,
    "reward": 3.2
  },
  {
    "phase": "TASK",
    "condition": "Cond1",
    "trial_num": 17,
    "trial_length": 5,
    "click_num": 2,
    "RT": 2913,
    "action": 1,
    "reward": 2.9
  },
  {
    "phase": "TASK",
    "condition": "Cond1",
    "trial_num": 17,
    "trial_length": 5,
    "click_num": 3,
    "RT": 1550,
    "action": 1,
    "reward": 3.1
  },
  {
    "phase": "TASK",
    "condition": "Cond1",
    "trial_num": 17,
    "trial_length": 5,
    "click_num": 4,
    "RT": 1537,
    "action": 1,
    "reward": 2.3
  },
  {
    "phase": "TASK",
    "condition": "Cond1",
    "trial_num": 17,
    "trial_length": 5,
    "click_num": 5,
    "RT": 1567,
    "action": 1,
    "reward": 3.3
  },
  {
    "phase": "TASK",
    "condition": "Cond1",
    "trial_num": 18,
    "trial_length": 5,
    "click_num": 1,
    "RT": 1735,
    "action": 1,
    "reward": 2.7
  },
  {
    "phase": "TASK",
    "condition": "Cond1",
    "trial_num": 18,
    "trial_length": 5,
    "click_num": 2,
    "RT": 1464,
    "action": 1,
    "reward": 3.1
  },
  {
    "phase": "TASK",
    "condition": "Cond1",
    "trial_num": 18,
    "trial_length": 5,
    "click_num": 3,
    "RT": 1944,
    "action": 1,
    "reward": 3.5
  },
  {
    "phase": "TASK",
    "condition": "Cond1",
    "trial_num": 18,
    "trial_length": 5,
    "click_num": 4,
    "RT": 1360,
    "action": 0,
    "reward": 3.5
  },
  {
    "phase": "TASK",
    "condition": "Cond1",
    "trial_num": 18,
    "trial_length": 5,
    "click_num": 5,
    "RT": 776,
    "action": 0,
    "reward": 3.5
  },
  {
    "phase": "TASK",
    "condition": "Cond1",
    "trial_num": 19,
    "trial_length": 5,
    "click_num": 1,
    "RT": 1632,
    "action": 1,
    "reward": 3.1
  },
  {
    "phase": "TASK",
    "condition": "Cond1",
    "trial_num": 19,
    "trial_length": 5,
    "click_num": 2,
    "RT": 2063,
    "action": 1,
    "reward": 3.4
  },
  {
    "phase": "TASK",
    "condition": "Cond1",
    "trial_num": 19,
    "trial_length": 5,
    "click_num": 3,
    "RT": 1480,
    "action": 0,
    "reward": 3.4
  },
  {
    "phase": "TASK",
    "condition": "Cond1",
    "trial_num": 19,
    "trial_length": 5,
    "click_num": 4,
    "RT": 919,
    "action": 0,
    "reward": 3.4
  },
  {
    "phase": "TASK",
    "condition": "Cond1",
    "trial_num": 19,
    "trial_length": 5,
    "click_num": 5,
    "RT": 880,
    "action": 0,
    "reward": 3.4
  },
  {
    "phase": "TASK",
    "condition": "Cond1",
    "trial_num": 20,
    "trial_length": 6,
    "click_num": 1,
    "RT": 1371,
    "action": 1,
    "reward": 2.2
  },
  {
    "phase": "TASK",
    "condition": "Cond1",
    "trial_num": 20,
    "trial_length": 6,
    "click_num": 2,
    "RT": 3782,
    "action": 1,
    "reward": 2.3
  },
  {
    "phase": "TASK",
    "condition": "Cond1",
    "trial_num": 20,
    "trial_length": 6,
    "click_num": 3,
    "RT": 2431,
    "action": 1,
    "reward": 3.3
  },
  {
    "phase": "TASK",
    "condition": "Cond1",
    "trial_num": 20,
    "trial_length": 6,
    "click_num": 4,
    "RT": 1399,
    "action": 1,
    "reward": 3.6
  },
  {
    "phase": "TASK",
    "condition": "Cond1",
    "trial_num": 20,
    "trial_length": 6,
    "click_num": 5,
    "RT": 1368,
    "action": 0,
    "reward": 3.6
  },
  {
    "phase": "TASK",
    "condition": "Cond1",
    "trial_num": 20,
    "trial_length": 6,
    "click_num": 6,
    "RT": 764,
    "action": 0,
    "reward": 3.6
  },
  {
    "phase": "TASK",
    "condition": "Cond1",
    "trial_num": 21,
    "trial_length": 8,
    "click_num": 1,
    "RT": 1380,
    "action": 1,
    "reward": 2.9
  },
  {
    "phase": "TASK",
    "condition": "Cond1",
    "trial_num": 21,
    "trial_length": 8,
    "click_num": 2,
    "RT": 1394,
    "action": 1,
    "reward": 3.6
  },
  {
    "phase": "TASK",
    "condition": "Cond1",
    "trial_num": 21,
    "trial_length": 8,
    "click_num": 3,
    "RT": 1342,
    "action": 0,
    "reward": 3.6
  },
  {
    "phase": "TASK",
    "condition": "Cond1",
    "trial_num": 21,
    "trial_length": 8,
    "click_num": 4,
    "RT": 752,
    "action": 0,
    "reward": 3.6
  },
  {
    "phase": "TASK",
    "condition": "Cond1",
    "trial_num": 21,
    "trial_length": 8,
    "click_num": 5,
    "RT": 737,
    "action": 0,
    "reward": 3.6
  },
  {
    "phase": "TASK",
    "condition": "Cond1",
    "trial_num": 21,
    "trial_length": 8,
    "click_num": 6,
    "RT": 736,
    "action": 0,
    "reward": 3.6
  },
  {
    "phase": "TASK",
    "condition": "Cond1",
    "trial_num": 21,
    "trial_length": 8,
    "click_num": 7,
    "RT": 712,
    "action": 0,
    "reward": 3.6
  },
  {
    "phase": "TASK",
    "condition": "Cond1",
    "trial_num": 21,
    "trial_length": 8,
    "click_num": 8,
    "RT": 719,
    "action": 0,
    "reward": 3.6
  },
  {
    "phase": "TASK",
    "condition": "Cond1",
    "trial_num": 22,
    "trial_length": 9,
    "click_num": 1,
    "RT": 1496,
    "action": 1,
    "reward": 2.7
  },
  {
    "phase": "TASK",
    "condition": "Cond1",
    "trial_num": 22,
    "trial_length": 9,
    "click_num": 2,
    "RT": 1416,
    "action": 1,
    "reward": 3.4
  },
  {
    "phase": "TASK",
    "condition": "Cond1",
    "trial_num": 22,
    "trial_length": 9,
    "click_num": 3,
    "RT": 1383,
    "action": 1,
    "reward": 3.7
  },
  {
    "phase": "TASK",
    "condition": "Cond1",
    "trial_num": 22,
    "trial_length": 9,
    "click_num": 4,
    "RT": 1428,
    "action": 0,
    "reward": 3.7
  },
  {
    "phase": "TASK",
    "condition": "Cond1",
    "trial_num": 22,
    "trial_length": 9,
    "click_num": 5,
    "RT": 701,
    "action": 0,
    "reward": 3.7
  },
  {
    "phase": "TASK",
    "condition": "Cond1",
    "trial_num": 22,
    "trial_length": 9,
    "click_num": 6,
    "RT": 688,
    "action": 0,
    "reward": 3.7
  },
  {
    "phase": "TASK",
    "condition": "Cond1",
    "trial_num": 22,
    "trial_length": 9,
    "click_num": 7,
    "RT": 1111,
    "action": 0,
    "reward": 3.7
  },
  {
    "phase": "TASK",
    "condition": "Cond1",
    "trial_num": 22,
    "trial_length": 9,
    "click_num": 8,
    "RT": 712,
    "action": 0,
    "reward": 3.7
  },
  {
    "phase": "TASK",
    "condition": "Cond1",
    "trial_num": 22,
    "trial_length": 9,
    "click_num": 9,
    "RT": 850,
    "action": 0,
    "reward": 3.7
  },
  {
    "phase": "TASK",
    "condition": "Cond1",
    "trial_num": 23,
    "trial_length": 10,
    "click_num": 1,
    "RT": 1885,
    "action": 1,
    "reward": 4.2
  },
  {
    "phase": "TASK",
    "condition": "Cond1",
    "trial_num": 23,
    "trial_length": 10,
    "click_num": 2,
    "RT": 2161,
    "action": 0,
    "reward": 4.2
  },
  {
    "phase": "TASK",
    "condition": "Cond1",
    "trial_num": 23,
    "trial_length": 10,
    "click_num": 3,
    "RT": 1679,
    "action": 0,
    "reward": 4.2
  },
  {
    "phase": "TASK",
    "condition": "Cond1",
    "trial_num": 23,
    "trial_length": 10,
    "click_num": 4,
    "RT": 897,
    "action": 0,
    "reward": 4.2
  },
  {
    "phase": "TASK",
    "condition": "Cond1",
    "trial_num": 23,
    "trial_length": 10,
    "click_num": 5,
    "RT": 952,
    "action": 0,
    "reward": 4.2
  },
  {
    "phase": "TASK",
    "condition": "Cond1",
    "trial_num": 23,
    "trial_length": 10,
    "click_num": 6,
    "RT": 856,
    "action": 0,
    "reward": 4.2
  },
  {
    "phase": "TASK",
    "condition": "Cond1",
    "trial_num": 23,
    "trial_length": 10,
    "click_num": 7,
    "RT": 784,
    "action": 0,
    "reward": 4.2
  },
  {
    "phase": "TASK",
    "condition": "Cond1",
    "trial_num": 23,
    "trial_length": 10,
    "click_num": 8,
    "RT": 816,
    "action": 0,
    "reward": 4.2
  },
  {
    "phase": "TASK",
    "condition": "Cond1",
    "trial_num": 23,
    "trial_length": 10,
    "click_num": 9,
    "RT": 762,
    "action": 0,
    "reward": 4.2
  },
  {
    "phase": "TASK",
    "condition": "Cond1",
    "trial_num": 23,
    "trial_length": 10,
    "click_num": 10,
    "RT": 782,
    "action": 0,
    "reward": 4.2
  },
  {
    "phase": "TASK",
    "condition": "Cond1",
    "trial_num": 24,
    "trial_length": 6,
    "click_num": 1,
    "RT": 1757,
    "action": 1,
    "reward": 3.6
  },
  {
    "phase": "TASK",
    "condition": "Cond1",
    "trial_num": 24,
    "trial_length": 6,
    "click_num": 2,
    "RT": 2937,
    "action": 0,
    "reward": 3.6
  },
  {
    "phase": "TASK",
    "condition": "Cond1",
    "trial_num": 24,
    "trial_length": 6,
    "click_num": 3,
    "RT": 744,
    "action": 0,
    "reward": 3.6
  },
  {
    "phase": "TASK",
    "condition": "Cond1",
    "trial_num": 24,
    "trial_length": 6,
    "click_num": 4,
    "RT": 760,
    "action": 0,
    "reward": 3.6
  },
  {
    "phase": "TASK",
    "condition": "Cond1",
    "trial_num": 24,
    "trial_length": 6,
    "click_num": 5,
    "RT": 855,
    "action": 0,
    "reward": 3.6
  },
  {
    "phase": "TASK",
    "condition": "Cond1",
    "trial_num": 24,
    "trial_length": 6,
    "click_num": 6,
    "RT": 777,
    "action": 0,
    "reward": 3.6
  },
  {
    "phase": "TASK",
    "condition": "Cond1",
    "trial_num": 25,
    "trial_length": 6,
    "click_num": 1,
    "RT": 1182,
    "action": 1,
    "reward": 2.7
  },
  {
    "phase": "TASK",
    "condition": "Cond1",
    "trial_num": 25,
    "trial_length": 6,
    "click_num": 2,
    "RT": 1377,
    "action": 1,
    "reward": 3.7
  },
  {
    "phase": "TASK",
    "condition": "Cond1",
    "trial_num": 25,
    "trial_length": 6,
    "click_num": 3,
    "RT": 1369,
    "action": 0,
    "reward": 3.7
  },
  {
    "phase": "TASK",
    "condition": "Cond1",
    "trial_num": 25,
    "trial_length": 6,
    "click_num": 4,
    "RT": 720,
    "action": 0,
    "reward": 3.7
  },
  {
    "phase": "TASK",
    "condition": "Cond1",
    "trial_num": 25,
    "trial_length": 6,
    "click_num": 5,
    "RT": 728,
    "action": 0,
    "reward": 3.7
  },
  {
    "phase": "TASK",
    "condition": "Cond1",
    "trial_num": 25,
    "trial_length": 6,
    "click_num": 6,
    "RT": 720,
    "action": 0,
    "reward": 3.7
  },
  {
    "phase": "TASK",
    "condition": "Cond1",
    "trial_num": 26,
    "trial_length": 9,
    "click_num": 1,
    "RT": 933,
    "action": 1,
    "reward": 3.4
  },
  {
    "phase": "TASK",
    "condition": "Cond1",
    "trial_num": 26,
    "trial_length": 9,
    "click_num": 2,
    "RT": 1209,
    "action": 1,
    "reward": 3.4
  },
  {
    "phase": "TASK",
    "condition": "Cond1",
    "trial_num": 26,
    "trial_length": 9,
    "click_num": 3,
    "RT": 1815,
    "action": 1,
    "reward": 2.8
  },
  {
    "phase": "TASK",
    "condition": "Cond1",
    "trial_num": 26,
    "trial_length": 9,
    "click_num": 4,
    "RT": 1369,
    "action": 0,
    "reward": 3.4
  },
  {
    "phase": "TASK",
    "condition": "Cond1",
    "trial_num": 26,
    "trial_length": 9,
    "click_num": 5,
    "RT": 683,
    "action": 0,
    "reward": 3.4
  },
  {
    "phase": "TASK",
    "condition": "Cond1",
    "trial_num": 26,
    "trial_length": 9,
    "click_num": 6,
    "RT": 765,
    "action": 0,
    "reward": 3.4
  },
  {
    "phase": "TASK",
    "condition": "Cond1",
    "trial_num": 26,
    "trial_length": 9,
    "click_num": 7,
    "RT": 1656,
    "action": 0,
    "reward": 3.4
  },
  {
    "phase": "TASK",
    "condition": "Cond1",
    "trial_num": 26,
    "trial_length": 9,
    "click_num": 8,
    "RT": 1263,
    "action": 1,
    "reward": 2.7
  },
  {
    "phase": "TASK",
    "condition": "Cond1",
    "trial_num": 26,
    "trial_length": 9,
    "click_num": 9,
    "RT": 1458,
    "action": 0,
    "reward": 3.4
  },
  {
    "phase": "TASK",
    "condition": "Cond1",
    "trial_num": 27,
    "trial_length": 8,
    "click_num": 1,
    "RT": 1295,
    "action": 1,
    "reward": 2
  },
  {
    "phase": "TASK",
    "condition": "Cond1",
    "trial_num": 27,
    "trial_length": 8,
    "click_num": 2,
    "RT": 1336,
    "action": 1,
    "reward": 2.5
  },
  {
    "phase": "TASK",
    "condition": "Cond1",
    "trial_num": 27,
    "trial_length": 8,
    "click_num": 3,
    "RT": 1391,
    "action": 1,
    "reward": 3.5
  },
  {
    "phase": "TASK",
    "condition": "Cond1",
    "trial_num": 27,
    "trial_length": 8,
    "click_num": 4,
    "RT": 1240,
    "action": 0,
    "reward": 3.5
  },
  {
    "phase": "TASK",
    "condition": "Cond1",
    "trial_num": 27,
    "trial_length": 8,
    "click_num": 5,
    "RT": 735,
    "action": 0,
    "reward": 3.5
  },
  {
    "phase": "TASK",
    "condition": "Cond1",
    "trial_num": 27,
    "trial_length": 8,
    "click_num": 6,
    "RT": 713,
    "action": 0,
    "reward": 3.5
  },
  {
    "phase": "TASK",
    "condition": "Cond1",
    "trial_num": 27,
    "trial_length": 8,
    "click_num": 7,
    "RT": 712,
    "action": 0,
    "reward": 3.5
  },
  {
    "phase": "TASK",
    "condition": "Cond1",
    "trial_num": 27,
    "trial_length": 8,
    "click_num": 8,
    "RT": 769,
    "action": 0,
    "reward": 3.5
  },
  {
    "phase": "TASK",
    "condition": "Cond1",
    "trial_num": 28,
    "trial_length": 8,
    "click_num": 1,
    "RT": 1117,
    "action": 1,
    "reward": 3.8
  },
  {
    "phase": "TASK",
    "condition": "Cond1",
    "trial_num": 28,
    "trial_length": 8,
    "click_num": 2,
    "RT": 1408,
    "action": 0,
    "reward": 3.8
  },
  {
    "phase": "TASK",
    "condition": "Cond1",
    "trial_num": 28,
    "trial_length": 8,
    "click_num": 3,
    "RT": 696,
    "action": 0,
    "reward": 3.8
  },
  {
    "phase": "TASK",
    "condition": "Cond1",
    "trial_num": 28,
    "trial_length": 8,
    "click_num": 4,
    "RT": 695,
    "action": 0,
    "reward": 3.8
  },
  {
    "phase": "TASK",
    "condition": "Cond1",
    "trial_num": 28,
    "trial_length": 8,
    "click_num": 5,
    "RT": 729,
    "action": 0,
    "reward": 3.8
  },
  {
    "phase": "TASK",
    "condition": "Cond1",
    "trial_num": 28,
    "trial_length": 8,
    "click_num": 6,
    "RT": 688,
    "action": 0,
    "reward": 3.8
  },
  {
    "phase": "TASK",
    "condition": "Cond1",
    "trial_num": 28,
    "trial_length": 8,
    "click_num": 7,
    "RT": 1312,
    "action": 0,
    "reward": 3.8
  },
  {
    "phase": "TASK",
    "condition": "Cond1",
    "trial_num": 28,
    "trial_length": 8,
    "click_num": 8,
    "RT": 2023,
    "action": 1,
    "reward": 2.7
  },
  {
    "phase": "TASK",
    "condition": "Cond1",
    "trial_num": 29,
    "trial_length": 5,
    "click_num": 1,
    "RT": 1189,
    "action": 1,
    "reward": 3.8
  },
  {
    "phase": "TASK",
    "condition": "Cond1",
    "trial_num": 29,
    "trial_length": 5,
    "click_num": 2,
    "RT": 1360,
    "action": 0,
    "reward": 3.8
  },
  {
    "phase": "TASK",
    "condition": "Cond1",
    "trial_num": 29,
    "trial_length": 5,
    "click_num": 3,
    "RT": 771,
    "action": 0,
    "reward": 3.8
  },
  {
    "phase": "TASK",
    "condition": "Cond1",
    "trial_num": 29,
    "trial_length": 5,
    "click_num": 4,
    "RT": 821,
    "action": 0,
    "reward": 3.8
  },
  {
    "phase": "TASK",
    "condition": "Cond1",
    "trial_num": 29,
    "trial_length": 5,
    "click_num": 5,
    "RT": 1280,
    "action": 0,
    "reward": 3.8
  },
  {
    "phase": "TASK",
    "condition": "Cond1",
    "trial_num": 30,
    "trial_length": 6,
    "click_num": 1,
    "RT": 1184,
    "action": 1,
    "reward": 2.9
  },
  {
    "phase": "TASK",
    "condition": "Cond1",
    "trial_num": 30,
    "trial_length": 6,
    "click_num": 2,
    "RT": 2536,
    "action": 1,
    "reward": 3
  },
  {
    "phase": "TASK",
    "condition": "Cond1",
    "trial_num": 30,
    "trial_length": 6,
    "click_num": 3,
    "RT": 1560,
    "action": 1,
    "reward": 3.6
  },
  {
    "phase": "TASK",
    "condition": "Cond1",
    "trial_num": 30,
    "trial_length": 6,
    "click_num": 4,
    "RT": 1208,
    "action": 0,
    "reward": 3.6
  },
  {
    "phase": "TASK",
    "condition": "Cond1",
    "trial_num": 30,
    "trial_length": 6,
    "click_num": 5,
    "RT": 780,
    "action": 0,
    "reward": 3.6
  },
  {
    "phase": "TASK",
    "condition": "Cond1",
    "trial_num": 30,
    "trial_length": 6,
    "click_num": 6,
    "RT": 693,
    "action": 0,
    "reward": 3.6
  },
  {
    "phase": "TASK",
    "condition": "Cond1",
    "trial_num": 31,
    "trial_length": 9,
    "click_num": 1,
    "RT": 1278,
    "action": 1,
    "reward": 4.4
  },
  {
    "phase": "TASK",
    "condition": "Cond1",
    "trial_num": 31,
    "trial_length": 9,
    "click_num": 2,
    "RT": 1592,
    "action": 0,
    "reward": 4.4
  },
  {
    "phase": "TASK",
    "condition": "Cond1",
    "trial_num": 31,
    "trial_length": 9,
    "click_num": 3,
    "RT": 766,
    "action": 0,
    "reward": 4.4
  },
  {
    "phase": "TASK",
    "condition": "Cond1",
    "trial_num": 31,
    "trial_length": 9,
    "click_num": 4,
    "RT": 770,
    "action": 0,
    "reward": 4.4
  },
  {
    "phase": "TASK",
    "condition": "Cond1",
    "trial_num": 31,
    "trial_length": 9,
    "click_num": 5,
    "RT": 768,
    "action": 0,
    "reward": 4.4
  },
  {
    "phase": "TASK",
    "condition": "Cond1",
    "trial_num": 31,
    "trial_length": 9,
    "click_num": 6,
    "RT": 695,
    "action": 0,
    "reward": 4.4
  },
  {
    "phase": "TASK",
    "condition": "Cond1",
    "trial_num": 31,
    "trial_length": 9,
    "click_num": 7,
    "RT": 688,
    "action": 0,
    "reward": 4.4
  },
  {
    "phase": "TASK",
    "condition": "Cond1",
    "trial_num": 31,
    "trial_length": 9,
    "click_num": 8,
    "RT": 881,
    "action": 0,
    "reward": 4.4
  },
  {
    "phase": "TASK",
    "condition": "Cond1",
    "trial_num": 31,
    "trial_length": 9,
    "click_num": 9,
    "RT": 785,
    "action": 0,
    "reward": 4.4
  },
  {
    "phase": "TASK",
    "condition": "Cond1",
    "trial_num": 32,
    "trial_length": 10,
    "click_num": 1,
    "RT": 8190,
    "action": 1,
    "reward": 3.1
  },
  {
    "phase": "TASK",
    "condition": "Cond1",
    "trial_num": 32,
    "trial_length": 10,
    "click_num": 2,
    "RT": 2191,
    "action": 1,
    "reward": 3.1
  },
  {
    "phase": "TASK",
    "condition": "Cond1",
    "trial_num": 32,
    "trial_length": 10,
    "click_num": 3,
    "RT": 1472,
    "action": 1,
    "reward": 2.4
  },
  {
    "phase": "TASK",
    "condition": "Cond1",
    "trial_num": 32,
    "trial_length": 10,
    "click_num": 4,
    "RT": 1192,
    "action": 1,
    "reward": 3.1
  },
  {
    "phase": "TASK",
    "condition": "Cond1",
    "trial_num": 32,
    "trial_length": 10,
    "click_num": 5,
    "RT": 1336,
    "action": 1,
    "reward": 2.5
  },
  {
    "phase": "TASK",
    "condition": "Cond1",
    "trial_num": 32,
    "trial_length": 10,
    "click_num": 6,
    "RT": 1536,
    "action": 0,
    "reward": 3.1
  },
  {
    "phase": "TASK",
    "condition": "Cond1",
    "trial_num": 32,
    "trial_length": 10,
    "click_num": 7,
    "RT": 681,
    "action": 0,
    "reward": 3.1
  },
  {
    "phase": "TASK",
    "condition": "Cond1",
    "trial_num": 32,
    "trial_length": 10,
    "click_num": 8,
    "RT": 662,
    "action": 0,
    "reward": 3.1
  },
  {
    "phase": "TASK",
    "condition": "Cond1",
    "trial_num": 32,
    "trial_length": 10,
    "click_num": 9,
    "RT": 690,
    "action": 0,
    "reward": 3.1
  },
  {
    "phase": "TASK",
    "condition": "Cond1",
    "trial_num": 32,
    "trial_length": 10,
    "click_num": 10,
    "RT": 750,
    "action": 0,
    "reward": 3.1
  },
  {
    "phase": "TASK",
    "condition": "Cond1",
    "trial_num": 33,
    "trial_length": 7,
    "click_num": 1,
    "RT": 3798,
    "action": 1,
    "reward": 2.6
  },
  {
    "phase": "TASK",
    "condition": "Cond1",
    "trial_num": 33,
    "trial_length": 7,
    "click_num": 2,
    "RT": 1647,
    "action": 1,
    "reward": 2.4
  },
  {
    "phase": "TASK",
    "condition": "Cond1",
    "trial_num": 33,
    "trial_length": 7,
    "click_num": 3,
    "RT": 2193,
    "action": 1,
    "reward": 3.3
  },
  {
    "phase": "TASK",
    "condition": "Cond1",
    "trial_num": 33,
    "trial_length": 7,
    "click_num": 4,
    "RT": 1271,
    "action": 1,
    "reward": 3.7
  },
  {
    "phase": "TASK",
    "condition": "Cond1",
    "trial_num": 33,
    "trial_length": 7,
    "click_num": 5,
    "RT": 1205,
    "action": 0,
    "reward": 3.7
  },
  {
    "phase": "TASK",
    "condition": "Cond1",
    "trial_num": 33,
    "trial_length": 7,
    "click_num": 6,
    "RT": 1250,
    "action": 0,
    "reward": 3.7
  },
  {
    "phase": "TASK",
    "condition": "Cond1",
    "trial_num": 33,
    "trial_length": 7,
    "click_num": 7,
    "RT": 723,
    "action": 0,
    "reward": 3.7
  },
  {
    "phase": "TASK",
    "condition": "Cond1",
    "trial_num": 34,
    "trial_length": 7,
    "click_num": 1,
    "RT": 1141,
    "action": 1,
    "reward": 3
  },
  {
    "phase": "TASK",
    "condition": "Cond1",
    "trial_num": 34,
    "trial_length": 7,
    "click_num": 2,
    "RT": 1600,
    "action": 1,
    "reward": 1.5
  },
  {
    "phase": "TASK",
    "condition": "Cond1",
    "trial_num": 34,
    "trial_length": 7,
    "click_num": 3,
    "RT": 1671,
    "action": 1,
    "reward": 3.9
  },
  {
    "phase": "TASK",
    "condition": "Cond1",
    "trial_num": 34,
    "trial_length": 7,
    "click_num": 4,
    "RT": 18233,
    "action": 0,
    "reward": 3.9
  },
  {
    "phase": "TASK",
    "condition": "Cond1",
    "trial_num": 34,
    "trial_length": 7,
    "click_num": 5,
    "RT": 9823,
    "action": 0,
    "reward": 3.9
  },
  {
    "phase": "TASK",
    "condition": "Cond1",
    "trial_num": 34,
    "trial_length": 7,
    "click_num": 6,
    "RT": 2232,
    "action": 0,
    "reward": 3.9
  },
  {
    "phase": "TASK",
    "condition": "Cond1",
    "trial_num": 34,
    "trial_length": 7,
    "click_num": 7,
    "RT": 2352,
    "action": 1,
    "reward": 3.7
  },
  {
    "phase": "TASK",
    "condition": "Cond1",
    "trial_num": 35,
    "trial_length": 9,
    "click_num": 1,
    "RT": 1703,
    "action": 1,
    "reward": 3.5
  },
  {
    "phase": "TASK",
    "condition": "Cond1",
    "trial_num": 35,
    "trial_length": 9,
    "click_num": 2,
    "RT": 15706,
    "action": 0,
    "reward": 3.5
  },
  {
    "phase": "TASK",
    "condition": "Cond1",
    "trial_num": 35,
    "trial_length": 9,
    "click_num": 3,
    "RT": 1959,
    "action": 1,
    "reward": 3
  },
  {
    "phase": "TASK",
    "condition": "Cond1",
    "trial_num": 35,
    "trial_length": 9,
    "click_num": 4,
    "RT": 5000,
    "action": 1,
    "reward": 3.6
  },
  {
    "phase": "TASK",
    "condition": "Cond1",
    "trial_num": 35,
    "trial_length": 9,
    "click_num": 5,
    "RT": 2280,
    "action": 1,
    "reward": 2.8
  },
  {
    "phase": "TASK",
    "condition": "Cond1",
    "trial_num": 35,
    "trial_length": 9,
    "click_num": 6,
    "RT": 1384,
    "action": 1,
    "reward": 3.3
  },
  {
    "phase": "TASK",
    "condition": "Cond1",
    "trial_num": 35,
    "trial_length": 9,
    "click_num": 7,
    "RT": 1303,
    "action": 0,
    "reward": 3.6
  },
  {
    "phase": "TASK",
    "condition": "Cond1",
    "trial_num": 35,
    "trial_length": 9,
    "click_num": 8,
    "RT": 1160,
    "action": 0,
    "reward": 3.6
  },
  {
    "phase": "TASK",
    "condition": "Cond1",
    "trial_num": 35,
    "trial_length": 9,
    "click_num": 9,
    "RT": 2544,
    "action": 0,
    "reward": 3.6
  },
  {
    "phase": "TASK",
    "condition": "Cond1",
    "trial_num": 36,
    "trial_length": 6,
    "click_num": 1,
    "RT": 2077,
    "action": 1,
    "reward": 3.2
  },
  {
    "phase": "TASK",
    "condition": "Cond1",
    "trial_num": 36,
    "trial_length": 6,
    "click_num": 2,
    "RT": 4904,
    "action": 1,
    "reward": 2.5
  },
  {
    "phase": "TASK",
    "condition": "Cond1",
    "trial_num": 36,
    "trial_length": 6,
    "click_num": 3,
    "RT": 1784,
    "action": 1,
    "reward": 2.7
  },
  {
    "phase": "TASK",
    "condition": "Cond1",
    "trial_num": 36,
    "trial_length": 6,
    "click_num": 4,
    "RT": 1575,
    "action": 1,
    "reward": 2.8
  },
  {
    "phase": "TASK",
    "condition": "Cond1",
    "trial_num": 36,
    "trial_length": 6,
    "click_num": 5,
    "RT": 2041,
    "action": 0,
    "reward": 3.2
  },
  {
    "phase": "TASK",
    "condition": "Cond1",
    "trial_num": 36,
    "trial_length": 6,
    "click_num": 6,
    "RT": 2064,
    "action": 0,
    "reward": 3.2
  },
  {
    "phase": "TASK",
    "condition": "Cond1",
    "trial_num": 37,
    "trial_length": 6,
    "click_num": 1,
    "RT": 5717,
    "action": 1,
    "reward": 2.9
  },
  {
    "phase": "TASK",
    "condition": "Cond1",
    "trial_num": 37,
    "trial_length": 6,
    "click_num": 2,
    "RT": 2569,
    "action": 1,
    "reward": 3.3
  },
  {
    "phase": "TASK",
    "condition": "Cond1",
    "trial_num": 37,
    "trial_length": 6,
    "click_num": 3,
    "RT": 2176,
    "action": 1,
    "reward": 2.1
  },
  {
    "phase": "TASK",
    "condition": "Cond1",
    "trial_num": 37,
    "trial_length": 6,
    "click_num": 4,
    "RT": 1859,
    "action": 1,
    "reward": 2.9
  },
  {
    "phase": "TASK",
    "condition": "Cond1",
    "trial_num": 37,
    "trial_length": 6,
    "click_num": 5,
    "RT": 1805,
    "action": 1,
    "reward": 2.1
  },
  {
    "phase": "TASK",
    "condition": "Cond1",
    "trial_num": 37,
    "trial_length": 6,
    "click_num": 6,
    "RT": 2296,
    "action": 0,
    "reward": 3.3
  },
  {
    "phase": "TASK",
    "condition": "Cond1",
    "trial_num": 38,
    "trial_length": 5,
    "click_num": 1,
    "RT": 2000,
    "action": 1,
    "reward": 3.3
  },
  {
    "phase": "TASK",
    "condition": "Cond1",
    "trial_num": 38,
    "trial_length": 5,
    "click_num": 2,
    "RT": 1815,
    "action": 1,
    "reward": 1.7
  },
  {
    "phase": "TASK",
    "condition": "Cond1",
    "trial_num": 38,
    "trial_length": 5,
    "click_num": 3,
    "RT": 1327,
    "action": 0,
    "reward": 3.3
  },
  {
    "phase": "TASK",
    "condition": "Cond1",
    "trial_num": 38,
    "trial_length": 5,
    "click_num": 4,
    "RT": 1456,
    "action": 0,
    "reward": 3.3
  },
  {
    "phase": "TASK",
    "condition": "Cond1",
    "trial_num": 38,
    "trial_length": 5,
    "click_num": 5,
    "RT": 1113,
    "action": 0,
    "reward": 3.3
  },
  {
    "phase": "TASK",
    "condition": "Cond1",
    "trial_num": 39,
    "trial_length": 5,
    "click_num": 1,
    "RT": 1848,
    "action": 1,
    "reward": 3.7
  },
  {
    "phase": "TASK",
    "condition": "Cond1",
    "trial_num": 39,
    "trial_length": 5,
    "click_num": 2,
    "RT": 1703,
    "action": 0,
    "reward": 3.7
  },
  {
    "phase": "TASK",
    "condition": "Cond1",
    "trial_num": 39,
    "trial_length": 5,
    "click_num": 3,
    "RT": 1808,
    "action": 0,
    "reward": 3.7
  },
  {
    "phase": "TASK",
    "condition": "Cond1",
    "trial_num": 39,
    "trial_length": 5,
    "click_num": 4,
    "RT": 1105,
    "action": 0,
    "reward": 3.7
  },
  {
    "phase": "TASK",
    "condition": "Cond1",
    "trial_num": 39,
    "trial_length": 5,
    "click_num": 5,
    "RT": 1187,
    "action": 0,
    "reward": 3.7
  },
  {
    "phase": "TASK",
    "condition": "Cond1",
    "trial_num": 40,
    "trial_length": 7,
    "click_num": 1,
    "RT": 12837,
    "action": 1,
    "reward": 2.4
  },
  {
    "phase": "TASK",
    "condition": "Cond1",
    "trial_num": 40,
    "trial_length": 7,
    "click_num": 2,
    "RT": 1945,
    "action": 1,
    "reward": 4.7
  },
  {
    "phase": "TASK",
    "condition": "Cond1",
    "trial_num": 40,
    "trial_length": 7,
    "click_num": 3,
    "RT": 2440,
    "action": 0,
    "reward": 4.7
  },
  {
    "phase": "TASK",
    "condition": "Cond1",
    "trial_num": 40,
    "trial_length": 7,
    "click_num": 4,
    "RT": 1631,
    "action": 0,
    "reward": 4.7
  },
  {
    "phase": "TASK",
    "condition": "Cond1",
    "trial_num": 40,
    "trial_length": 7,
    "click_num": 5,
    "RT": 1473,
    "action": 0,
    "reward": 4.7
  },
  {
    "phase": "TASK",
    "condition": "Cond1",
    "trial_num": 40,
    "trial_length": 7,
    "click_num": 6,
    "RT": 935,
    "action": 0,
    "reward": 4.7
  },
  {
    "phase": "TASK",
    "condition": "Cond1",
    "trial_num": 40,
    "trial_length": 7,
    "click_num": 7,
    "RT": 800,
    "action": 0,
    "reward": 4.7
  },
  {
    "phase": "TASK",
    "condition": "Cond1",
    "trial_num": 41,
    "trial_length": 5,
    "click_num": 1,
    "RT": 3364,
    "action": 1,
    "reward": 2.5
  },
  {
    "phase": "TASK",
    "condition": "Cond1",
    "trial_num": 41,
    "trial_length": 5,
    "click_num": 2,
    "RT": 1665,
    "action": 1,
    "reward": 4
  },
  {
    "phase": "TASK",
    "condition": "Cond1",
    "trial_num": 41,
    "trial_length": 5,
    "click_num": 3,
    "RT": 1583,
    "action": 0,
    "reward": 4
  },
  {
    "phase": "TASK",
    "condition": "Cond1",
    "trial_num": 41,
    "trial_length": 5,
    "click_num": 4,
    "RT": 1361,
    "action": 0,
    "reward": 4
  },
  {
    "phase": "TASK",
    "condition": "Cond1",
    "trial_num": 41,
    "trial_length": 5,
    "click_num": 5,
    "RT": 1391,
    "action": 0,
    "reward": 4
  },
  {
    "phase": "TASK",
    "condition": "Cond1",
    "trial_num": 42,
    "trial_length": 8,
    "click_num": 1,
    "RT": 1256,
    "action": 1,
    "reward": 4.4
  },
  {
    "phase": "TASK",
    "condition": "Cond1",
    "trial_num": 42,
    "trial_length": 8,
    "click_num": 2,
    "RT": 1727,
    "action": 0,
    "reward": 4.4
  },
  {
    "phase": "TASK",
    "condition": "Cond1",
    "trial_num": 42,
    "trial_length": 8,
    "click_num": 3,
    "RT": 1177,
    "action": 0,
    "reward": 4.4
  },
  {
    "phase": "TASK",
    "condition": "Cond1",
    "trial_num": 42,
    "trial_length": 8,
    "click_num": 4,
    "RT": 751,
    "action": 0,
    "reward": 4.4
  },
  {
    "phase": "TASK",
    "condition": "Cond1",
    "trial_num": 42,
    "trial_length": 8,
    "click_num": 5,
    "RT": 808,
    "action": 0,
    "reward": 4.4
  },
  {
    "phase": "TASK",
    "condition": "Cond1",
    "trial_num": 42,
    "trial_length": 8,
    "click_num": 6,
    "RT": 2136,
    "action": 0,
    "reward": 4.4
  },
  {
    "phase": "TASK",
    "condition": "Cond1",
    "trial_num": 42,
    "trial_length": 8,
    "click_num": 7,
    "RT": 736,
    "action": 0,
    "reward": 4.4
  },
  {
    "phase": "TASK",
    "condition": "Cond1",
    "trial_num": 42,
    "trial_length": 8,
    "click_num": 8,
    "RT": 897,
    "action": 0,
    "reward": 4.4
  },
  {
    "phase": "TASK",
    "condition": "Cond1",
    "trial_num": 43,
    "trial_length": 5,
    "click_num": 1,
    "RT": 1796,
    "action": 1,
    "reward": 3.6
  },
  {
    "phase": "TASK",
    "condition": "Cond1",
    "trial_num": 43,
    "trial_length": 5,
    "click_num": 2,
    "RT": 1768,
    "action": 0,
    "reward": 3.6
  },
  {
    "phase": "TASK",
    "condition": "Cond1",
    "trial_num": 43,
    "trial_length": 5,
    "click_num": 3,
    "RT": 889,
    "action": 0,
    "reward": 3.6
  },
  {
    "phase": "TASK",
    "condition": "Cond1",
    "trial_num": 43,
    "trial_length": 5,
    "click_num": 4,
    "RT": 767,
    "action": 0,
    "reward": 3.6
  },
  {
    "phase": "TASK",
    "condition": "Cond1",
    "trial_num": 43,
    "trial_length": 5,
    "click_num": 5,
    "RT": 712,
    "action": 0,
    "reward": 3.6
  },
  {
    "phase": "TASK",
    "condition": "Cond1",
    "trial_num": 44,
    "trial_length": 8,
    "click_num": 1,
    "RT": 1487,
    "action": 1,
    "reward": 2.6
  },
  {
    "phase": "TASK",
    "condition": "Cond1",
    "trial_num": 44,
    "trial_length": 8,
    "click_num": 2,
    "RT": 1464,
    "action": 1,
    "reward": 3.6
  },
  {
    "phase": "TASK",
    "condition": "Cond1",
    "trial_num": 44,
    "trial_length": 8,
    "click_num": 3,
    "RT": 1179,
    "action": 0,
    "reward": 3.6
  },
  {
    "phase": "TASK",
    "condition": "Cond1",
    "trial_num": 44,
    "trial_length": 8,
    "click_num": 4,
    "RT": 895,
    "action": 0,
    "reward": 3.6
  },
  {
    "phase": "TASK",
    "condition": "Cond1",
    "trial_num": 44,
    "trial_length": 8,
    "click_num": 5,
    "RT": 735,
    "action": 0,
    "reward": 3.6
  },
  {
    "phase": "TASK",
    "condition": "Cond1",
    "trial_num": 44,
    "trial_length": 8,
    "click_num": 6,
    "RT": 839,
    "action": 0,
    "reward": 3.6
  },
  {
    "phase": "TASK",
    "condition": "Cond1",
    "trial_num": 44,
    "trial_length": 8,
    "click_num": 7,
    "RT": 968,
    "action": 0,
    "reward": 3.6
  },
  {
    "phase": "TASK",
    "condition": "Cond1",
    "trial_num": 44,
    "trial_length": 8,
    "click_num": 8,
    "RT": 816,
    "action": 0,
    "reward": 3.6
  },
  {
    "phase": "TASK",
    "condition": "Cond1",
    "trial_num": 45,
    "trial_length": 6,
    "click_num": 1,
    "RT": 1942,
    "action": 1,
    "reward": 3.3
  },
  {
    "phase": "TASK",
    "condition": "Cond1",
    "trial_num": 45,
    "trial_length": 6,
    "click_num": 2,
    "RT": 2715,
    "action": 1,
    "reward": 2.9
  },
  {
    "phase": "TASK",
    "condition": "Cond1",
    "trial_num": 45,
    "trial_length": 6,
    "click_num": 3,
    "RT": 1308,
    "action": 1,
    "reward": 3
  },
  {
    "phase": "TASK",
    "condition": "Cond1",
    "trial_num": 45,
    "trial_length": 6,
    "click_num": 4,
    "RT": 1490,
    "action": 1,
    "reward": 4.1
  },
  {
    "phase": "TASK",
    "condition": "Cond1",
    "trial_num": 45,
    "trial_length": 6,
    "click_num": 5,
    "RT": 1367,
    "action": 0,
    "reward": 4.1
  },
  {
    "phase": "TASK",
    "condition": "Cond1",
    "trial_num": 45,
    "trial_length": 6,
    "click_num": 6,
    "RT": 767,
    "action": 0,
    "reward": 4.1
  },
  {
    "phase": "TASK",
    "condition": "Cond1",
    "trial_num": 46,
    "trial_length": 6,
    "click_num": 1,
    "RT": 1230,
    "action": 1,
    "reward": 3.7
  },
  {
    "phase": "TASK",
    "condition": "Cond1",
    "trial_num": 46,
    "trial_length": 6,
    "click_num": 2,
    "RT": 1384,
    "action": 0,
    "reward": 3.7
  },
  {
    "phase": "TASK",
    "condition": "Cond1",
    "trial_num": 46,
    "trial_length": 6,
    "click_num": 3,
    "RT": 767,
    "action": 0,
    "reward": 3.7
  },
  {
    "phase": "TASK",
    "condition": "Cond1",
    "trial_num": 46,
    "trial_length": 6,
    "click_num": 4,
    "RT": 689,
    "action": 0,
    "reward": 3.7
  },
  {
    "phase": "TASK",
    "condition": "Cond1",
    "trial_num": 46,
    "trial_length": 6,
    "click_num": 5,
    "RT": 719,
    "action": 0,
    "reward": 3.7
  },
  {
    "phase": "TASK",
    "condition": "Cond1",
    "trial_num": 46,
    "trial_length": 6,
    "click_num": 6,
    "RT": 690,
    "action": 0,
    "reward": 3.7
  },
  {
    "phase": "TASK",
    "condition": "Cond1",
    "trial_num": 47,
    "trial_length": 5,
    "click_num": 1,
    "RT": 1830,
    "action": 1,
    "reward": 2.4
  },
  {
    "phase": "TASK",
    "condition": "Cond1",
    "trial_num": 47,
    "trial_length": 5,
    "click_num": 2,
    "RT": 1540,
    "action": 1,
    "reward": 2.7
  },
  {
    "phase": "TASK",
    "condition": "Cond1",
    "trial_num": 47,
    "trial_length": 5,
    "click_num": 3,
    "RT": 1309,
    "action": 1,
    "reward": 4.6
  },
  {
    "phase": "TASK",
    "condition": "Cond1",
    "trial_num": 47,
    "trial_length": 5,
    "click_num": 4,
    "RT": 1169,
    "action": 0,
    "reward": 4.6
  },
  {
    "phase": "TASK",
    "condition": "Cond1",
    "trial_num": 47,
    "trial_length": 5,
    "click_num": 5,
    "RT": 839,
    "action": 0,
    "reward": 4.6
  },
  {
    "phase": "TASK",
    "condition": "Cond1",
    "trial_num": 48,
    "trial_length": 9,
    "click_num": 1,
    "RT": 1246,
    "action": 1,
    "reward": 3.3
  },
  {
    "phase": "TASK",
    "condition": "Cond1",
    "trial_num": 48,
    "trial_length": 9,
    "click_num": 2,
    "RT": 1916,
    "action": 1,
    "reward": 2.6
  },
  {
    "phase": "TASK",
    "condition": "Cond1",
    "trial_num": 48,
    "trial_length": 9,
    "click_num": 3,
    "RT": 1196,
    "action": 1,
    "reward": 3.2
  },
  {
    "phase": "TASK",
    "condition": "Cond1",
    "trial_num": 48,
    "trial_length": 9,
    "click_num": 4,
    "RT": 1288,
    "action": 1,
    "reward": 4.4
  },
  {
    "phase": "TASK",
    "condition": "Cond1",
    "trial_num": 48,
    "trial_length": 9,
    "click_num": 5,
    "RT": 1580,
    "action": 0,
    "reward": 4.4
  },
  {
    "phase": "TASK",
    "condition": "Cond1",
    "trial_num": 48,
    "trial_length": 9,
    "click_num": 6,
    "RT": 709,
    "action": 0,
    "reward": 4.4
  },
  {
    "phase": "TASK",
    "condition": "Cond1",
    "trial_num": 48,
    "trial_length": 9,
    "click_num": 7,
    "RT": 695,
    "action": 0,
    "reward": 4.4
  },
  {
    "phase": "TASK",
    "condition": "Cond1",
    "trial_num": 48,
    "trial_length": 9,
    "click_num": 8,
    "RT": 672,
    "action": 0,
    "reward": 4.4
  },
  {
    "phase": "TASK",
    "condition": "Cond1",
    "trial_num": 48,
    "trial_length": 9,
    "click_num": 9,
    "RT": 664,
    "action": 0,
    "reward": 4.4
  },
  {
    "phase": "TASK",
    "condition": "Cond1",
    "trial_num": 49,
    "trial_length": 10,
    "click_num": 1,
    "RT": 1072,
    "action": 1,
    "reward": 2.7
  },
  {
    "phase": "TASK",
    "condition": "Cond1",
    "trial_num": 49,
    "trial_length": 10,
    "click_num": 2,
    "RT": 1517,
    "action": 1,
    "reward": 2.8
  },
  {
    "phase": "TASK",
    "condition": "Cond1",
    "trial_num": 49,
    "trial_length": 10,
    "click_num": 3,
    "RT": 1921,
    "action": 1,
    "reward": 3.4
  },
  {
    "phase": "TASK",
    "condition": "Cond1",
    "trial_num": 49,
    "trial_length": 10,
    "click_num": 4,
    "RT": 1616,
    "action": 1,
    "reward": 3
  },
  {
    "phase": "TASK",
    "condition": "Cond1",
    "trial_num": 49,
    "trial_length": 10,
    "click_num": 5,
    "RT": 1304,
    "action": 1,
    "reward": 3.1
  },
  {
    "phase": "TASK",
    "condition": "Cond1",
    "trial_num": 49,
    "trial_length": 10,
    "click_num": 6,
    "RT": 1255,
    "action": 1,
    "reward": 2.7
  },
  {
    "phase": "TASK",
    "condition": "Cond1",
    "trial_num": 49,
    "trial_length": 10,
    "click_num": 7,
    "RT": 1403,
    "action": 0,
    "reward": 3.4
  },
  {
    "phase": "TASK",
    "condition": "Cond1",
    "trial_num": 49,
    "trial_length": 10,
    "click_num": 8,
    "RT": 733,
    "action": 0,
    "reward": 3.4
  },
  {
    "phase": "TASK",
    "condition": "Cond1",
    "trial_num": 49,
    "trial_length": 10,
    "click_num": 9,
    "RT": 704,
    "action": 0,
    "reward": 3.4
  },
  {
    "phase": "TASK",
    "condition": "Cond1",
    "trial_num": 49,
    "trial_length": 10,
    "click_num": 10,
    "RT": 711,
    "action": 0,
    "reward": 3.4
  },
  {
    "phase": "TASK",
    "condition": "Cond1",
    "trial_num": 50,
    "trial_length": 5,
    "click_num": 1,
    "RT": 1084,
    "action": 1,
    "reward": 3
  },
  {
    "phase": "TASK",
    "condition": "Cond1",
    "trial_num": 50,
    "trial_length": 5,
    "click_num": 2,
    "RT": 1425,
    "action": 1,
    "reward": 2.9
  },
  {
    "phase": "TASK",
    "condition": "Cond1",
    "trial_num": 50,
    "trial_length": 5,
    "click_num": 3,
    "RT": 1479,
    "action": 1,
    "reward": 3.2
  },
  {
    "phase": "TASK",
    "condition": "Cond1",
    "trial_num": 50,
    "trial_length": 5,
    "click_num": 4,
    "RT": 1400,
    "action": 1,
    "reward": 2.3
  },
  {
    "phase": "TASK",
    "condition": "Cond1",
    "trial_num": 50,
    "trial_length": 5,
    "click_num": 5,
    "RT": 1497,
    "action": 1,
    "reward": 3.2
  },
  {
    "phase": "TASK",
    "condition": "Cond1",
    "trial_num": 51,
    "trial_length": 7,
    "click_num": 1,
    "RT": 1405,
    "action": 1,
    "reward": 3.6
  },
  {
    "phase": "TASK",
    "condition": "Cond1",
    "trial_num": 51,
    "trial_length": 7,
    "click_num": 2,
    "RT": 1449,
    "action": 0,
    "reward": 3.6
  },
  {
    "phase": "TASK",
    "condition": "Cond1",
    "trial_num": 51,
    "trial_length": 7,
    "click_num": 3,
    "RT": 911,
    "action": 0,
    "reward": 3.6
  },
  {
    "phase": "TASK",
    "condition": "Cond1",
    "trial_num": 51,
    "trial_length": 7,
    "click_num": 4,
    "RT": 752,
    "action": 0,
    "reward": 3.6
  },
  {
    "phase": "TASK",
    "condition": "Cond1",
    "trial_num": 51,
    "trial_length": 7,
    "click_num": 5,
    "RT": 691,
    "action": 0,
    "reward": 3.6
  },
  {
    "phase": "TASK",
    "condition": "Cond1",
    "trial_num": 51,
    "trial_length": 7,
    "click_num": 6,
    "RT": 653,
    "action": 0,
    "reward": 3.6
  },
  {
    "phase": "TASK",
    "condition": "Cond1",
    "trial_num": 51,
    "trial_length": 7,
    "click_num": 7,
    "RT": 652,
    "action": 0,
    "reward": 3.6
  },
  {
    "phase": "TASK",
    "condition": "Cond1",
    "trial_num": 52,
    "trial_length": 8,
    "click_num": 1,
    "RT": 1397,
    "action": 1,
    "reward": 2.8
  },
  {
    "phase": "TASK",
    "condition": "Cond1",
    "trial_num": 52,
    "trial_length": 8,
    "click_num": 2,
    "RT": 1400,
    "action": 1,
    "reward": 2.6
  },
  {
    "phase": "TASK",
    "condition": "Cond1",
    "trial_num": 52,
    "trial_length": 8,
    "click_num": 3,
    "RT": 1371,
    "action": 1,
    "reward": 3.7
  },
  {
    "phase": "TASK",
    "condition": "Cond1",
    "trial_num": 52,
    "trial_length": 8,
    "click_num": 4,
    "RT": 1363,
    "action": 0,
    "reward": 3.7
  },
  {
    "phase": "TASK",
    "condition": "Cond1",
    "trial_num": 52,
    "trial_length": 8,
    "click_num": 5,
    "RT": 850,
    "action": 0,
    "reward": 3.7
  },
  {
    "phase": "TASK",
    "condition": "Cond1",
    "trial_num": 52,
    "trial_length": 8,
    "click_num": 6,
    "RT": 672,
    "action": 0,
    "reward": 3.7
  },
  {
    "phase": "TASK",
    "condition": "Cond1",
    "trial_num": 52,
    "trial_length": 8,
    "click_num": 7,
    "RT": 736,
    "action": 0,
    "reward": 3.7
  },
  {
    "phase": "TASK",
    "condition": "Cond1",
    "trial_num": 52,
    "trial_length": 8,
    "click_num": 8,
    "RT": 656,
    "action": 0,
    "reward": 3.7
  },
  {
    "phase": "TASK",
    "condition": "Cond1",
    "trial_num": 53,
    "trial_length": 6,
    "click_num": 1,
    "RT": 946,
    "action": 1,
    "reward": 2.4
  },
  {
    "phase": "TASK",
    "condition": "Cond1",
    "trial_num": 53,
    "trial_length": 6,
    "click_num": 2,
    "RT": 2637,
    "action": 1,
    "reward": 2
  },
  {
    "phase": "TASK",
    "condition": "Cond1",
    "trial_num": 53,
    "trial_length": 6,
    "click_num": 3,
    "RT": 1729,
    "action": 1,
    "reward": 3.1
  },
  {
    "phase": "TASK",
    "condition": "Cond1",
    "trial_num": 53,
    "trial_length": 6,
    "click_num": 4,
    "RT": 1431,
    "action": 1,
    "reward": 2.7
  },
  {
    "phase": "TASK",
    "condition": "Cond1",
    "trial_num": 53,
    "trial_length": 6,
    "click_num": 5,
    "RT": 1384,
    "action": 1,
    "reward": 2.8
  },
  {
    "phase": "TASK",
    "condition": "Cond1",
    "trial_num": 53,
    "trial_length": 6,
    "click_num": 6,
    "RT": 1064,
    "action": 0,
    "reward": 3.1
  },
  {
    "phase": "TASK",
    "condition": "Cond1",
    "trial_num": 54,
    "trial_length": 7,
    "click_num": 1,
    "RT": 1015,
    "action": 1,
    "reward": 2.7
  },
  {
    "phase": "TASK",
    "condition": "Cond1",
    "trial_num": 54,
    "trial_length": 7,
    "click_num": 2,
    "RT": 1152,
    "action": 1,
    "reward": 1.9
  },
  {
    "phase": "TASK",
    "condition": "Cond1",
    "trial_num": 54,
    "trial_length": 7,
    "click_num": 3,
    "RT": 1327,
    "action": 1,
    "reward": 3.1
  },
  {
    "phase": "TASK",
    "condition": "Cond1",
    "trial_num": 54,
    "trial_length": 7,
    "click_num": 4,
    "RT": 1992,
    "action": 1,
    "reward": 2.7
  },
  {
    "phase": "TASK",
    "condition": "Cond1",
    "trial_num": 54,
    "trial_length": 7,
    "click_num": 5,
    "RT": 1184,
    "action": 0,
    "reward": 3.1
  },
  {
    "phase": "TASK",
    "condition": "Cond1",
    "trial_num": 54,
    "trial_length": 7,
    "click_num": 6,
    "RT": 696,
    "action": 0,
    "reward": 3.1
  },
  {
    "phase": "TASK",
    "condition": "Cond1",
    "trial_num": 54,
    "trial_length": 7,
    "click_num": 7,
    "RT": 744,
    "action": 0,
    "reward": 3.1
  },
  {
    "phase": "TASK",
    "condition": "Cond1",
    "trial_num": 55,
    "trial_length": 8,
    "click_num": 1,
    "RT": 1368,
    "action": 1,
    "reward": 1
  },
  {
    "phase": "TASK",
    "condition": "Cond1",
    "trial_num": 55,
    "trial_length": 8,
    "click_num": 2,
    "RT": 2193,
    "action": 1,
    "reward": 2.7
  },
  {
    "phase": "TASK",
    "condition": "Cond1",
    "trial_num": 55,
    "trial_length": 8,
    "click_num": 3,
    "RT": 1327,
    "action": 1,
    "reward": 2.4
  },
  {
    "phase": "TASK",
    "condition": "Cond1",
    "trial_num": 55,
    "trial_length": 8,
    "click_num": 4,
    "RT": 1712,
    "action": 1,
    "reward": 2.1
  },
  {
    "phase": "TASK",
    "condition": "Cond1",
    "trial_num": 55,
    "trial_length": 8,
    "click_num": 5,
    "RT": 1424,
    "action": 1,
    "reward": 3.6
  },
  {
    "phase": "TASK",
    "condition": "Cond1",
    "trial_num": 55,
    "trial_length": 8,
    "click_num": 6,
    "RT": 1272,
    "action": 0,
    "reward": 3.6
  },
  {
    "phase": "TASK",
    "condition": "Cond1",
    "trial_num": 55,
    "trial_length": 8,
    "click_num": 7,
    "RT": 632,
    "action": 0,
    "reward": 3.6
  },
  {
    "phase": "TASK",
    "condition": "Cond1",
    "trial_num": 55,
    "trial_length": 8,
    "click_num": 8,
    "RT": 672,
    "action": 0,
    "reward": 3.6
  },
  {
    "phase": "TASK",
    "condition": "Cond1",
    "trial_num": 56,
    "trial_length": 9,
    "click_num": 1,
    "RT": 1080,
    "action": 1,
    "reward": 2
  },
  {
    "phase": "TASK",
    "condition": "Cond1",
    "trial_num": 56,
    "trial_length": 9,
    "click_num": 2,
    "RT": 1192,
    "action": 1,
    "reward": 2.6
  },
  {
    "phase": "TASK",
    "condition": "Cond1",
    "trial_num": 56,
    "trial_length": 9,
    "click_num": 3,
    "RT": 1337,
    "action": 1,
    "reward": 3.5
  },
  {
    "phase": "TASK",
    "condition": "Cond1",
    "trial_num": 56,
    "trial_length": 9,
    "click_num": 4,
    "RT": 1495,
    "action": 0,
    "reward": 3.5
  },
  {
    "phase": "TASK",
    "condition": "Cond1",
    "trial_num": 56,
    "trial_length": 9,
    "click_num": 5,
    "RT": 673,
    "action": 0,
    "reward": 3.5
  },
  {
    "phase": "TASK",
    "condition": "Cond1",
    "trial_num": 56,
    "trial_length": 9,
    "click_num": 6,
    "RT": 583,
    "action": 0,
    "reward": 3.5
  },
  {
    "phase": "TASK",
    "condition": "Cond1",
    "trial_num": 56,
    "trial_length": 9,
    "click_num": 7,
    "RT": 1473,
    "action": 0,
    "reward": 3.5
  },
  {
    "phase": "TASK",
    "condition": "Cond1",
    "trial_num": 56,
    "trial_length": 9,
    "click_num": 8,
    "RT": 823,
    "action": 1,
    "reward": 3.2
  },
  {
    "phase": "TASK",
    "condition": "Cond1",
    "trial_num": 56,
    "trial_length": 9,
    "click_num": 9,
    "RT": 1208,
    "action": 0,
    "reward": 3.5
  },
  {
    "phase": "TASK",
    "condition": "Cond1",
    "trial_num": 57,
    "trial_length": 8,
    "click_num": 1,
    "RT": 1367,
    "action": 1,
    "reward": 3.1
  },
  {
    "phase": "TASK",
    "condition": "Cond1",
    "trial_num": 57,
    "trial_length": 8,
    "click_num": 2,
    "RT": 2239,
    "action": 1,
    "reward": 3.1
  },
  {
    "phase": "TASK",
    "condition": "Cond1",
    "trial_num": 57,
    "trial_length": 8,
    "click_num": 3,
    "RT": 1731,
    "action": 1,
    "reward": 2.5
  },
  {
    "phase": "TASK",
    "condition": "Cond1",
    "trial_num": 57,
    "trial_length": 8,
    "click_num": 4,
    "RT": 1214,
    "action": 1,
    "reward": 3.1
  },
  {
    "phase": "TASK",
    "condition": "Cond1",
    "trial_num": 57,
    "trial_length": 8,
    "click_num": 5,
    "RT": 1591,
    "action": 1,
    "reward": 3
  },
  {
    "phase": "TASK",
    "condition": "Cond1",
    "trial_num": 57,
    "trial_length": 8,
    "click_num": 6,
    "RT": 1227,
    "action": 0,
    "reward": 3.1
  },
  {
    "phase": "TASK",
    "condition": "Cond1",
    "trial_num": 57,
    "trial_length": 8,
    "click_num": 7,
    "RT": 636,
    "action": 0,
    "reward": 3.1
  },
  {
    "phase": "TASK",
    "condition": "Cond1",
    "trial_num": 57,
    "trial_length": 8,
    "click_num": 8,
    "RT": 969,
    "action": 0,
    "reward": 3.1
  },
  {
    "phase": "TASK",
    "condition": "Cond1",
    "trial_num": 58,
    "trial_length": 9,
    "click_num": 1,
    "RT": 1334,
    "action": 1,
    "reward": 3.3
  },
  {
    "phase": "TASK",
    "condition": "Cond1",
    "trial_num": 58,
    "trial_length": 9,
    "click_num": 2,
    "RT": 1560,
    "action": 1,
    "reward": 2.8
  },
  {
    "phase": "TASK",
    "condition": "Cond1",
    "trial_num": 58,
    "trial_length": 9,
    "click_num": 3,
    "RT": 1768,
    "action": 1,
    "reward": 4
  },
  {
    "phase": "TASK",
    "condition": "Cond1",
    "trial_num": 58,
    "trial_length": 9,
    "click_num": 4,
    "RT": 1270,
    "action": 0,
    "reward": 4
  },
  {
    "phase": "TASK",
    "condition": "Cond1",
    "trial_num": 58,
    "trial_length": 9,
    "click_num": 5,
    "RT": 698,
    "action": 0,
    "reward": 4
  },
  {
    "phase": "TASK",
    "condition": "Cond1",
    "trial_num": 58,
    "trial_length": 9,
    "click_num": 6,
    "RT": 734,
    "action": 0,
    "reward": 4
  },
  {
    "phase": "TASK",
    "condition": "Cond1",
    "trial_num": 58,
    "trial_length": 9,
    "click_num": 7,
    "RT": 800,
    "action": 0,
    "reward": 4
  },
  {
    "phase": "TASK",
    "condition": "Cond1",
    "trial_num": 58,
    "trial_length": 9,
    "click_num": 8,
    "RT": 695,
    "action": 0,
    "reward": 4
  },
  {
    "phase": "TASK",
    "condition": "Cond1",
    "trial_num": 58,
    "trial_length": 9,
    "click_num": 9,
    "RT": 777,
    "action": 0,
    "reward": 4
  },
  {
    "phase": "TASK",
    "condition": "Cond1",
    "trial_num": 59,
    "trial_length": 7,
    "click_num": 1,
    "RT": 1983,
    "action": 1,
    "reward": 3.2
  },
  {
    "phase": "TASK",
    "condition": "Cond1",
    "trial_num": 59,
    "trial_length": 7,
    "click_num": 2,
    "RT": 1392,
    "action": 1,
    "reward": 3.3
  },
  {
    "phase": "TASK",
    "condition": "Cond1",
    "trial_num": 59,
    "trial_length": 7,
    "click_num": 3,
    "RT": 1032,
    "action": 1,
    "reward": 2
  },
  {
    "phase": "TASK",
    "condition": "Cond1",
    "trial_num": 59,
    "trial_length": 7,
    "click_num": 4,
    "RT": 1400,
    "action": 1,
    "reward": 3.5
  },
  {
    "phase": "TASK",
    "condition": "Cond1",
    "trial_num": 59,
    "trial_length": 7,
    "click_num": 5,
    "RT": 1528,
    "action": 1,
    "reward": 2.9
  },
  {
    "phase": "TASK",
    "condition": "Cond1",
    "trial_num": 59,
    "trial_length": 7,
    "click_num": 6,
    "RT": 1136,
    "action": 0,
    "reward": 3.5
  },
  {
    "phase": "TASK",
    "condition": "Cond1",
    "trial_num": 59,
    "trial_length": 7,
    "click_num": 7,
    "RT": 575,
    "action": 0,
    "reward": 3.5
  },
  {
    "phase": "TASK",
    "condition": "Cond1",
    "trial_num": 60,
    "trial_length": 10,
    "click_num": 1,
    "RT": 1096,
    "action": 1,
    "reward": 2.9
  },
  {
    "phase": "TASK",
    "condition": "Cond1",
    "trial_num": 60,
    "trial_length": 10,
    "click_num": 2,
    "RT": 1184,
    "action": 1,
    "reward": 2.7
  },
  {
    "phase": "TASK",
    "condition": "Cond1",
    "trial_num": 60,
    "trial_length": 10,
    "click_num": 3,
    "RT": 976,
    "action": 1,
    "reward": 3.1
  },
  {
    "phase": "TASK",
    "condition": "Cond1",
    "trial_num": 60,
    "trial_length": 10,
    "click_num": 4,
    "RT": 1159,
    "action": 1,
    "reward": 2
  },
  {
    "phase": "TASK",
    "condition": "Cond1",
    "trial_num": 60,
    "trial_length": 10,
    "click_num": 5,
    "RT": 1296,
    "action": 1,
    "reward": 3.2
  },
  {
    "phase": "TASK",
    "condition": "Cond1",
    "trial_num": 60,
    "trial_length": 10,
    "click_num": 6,
    "RT": 1698,
    "action": 0,
    "reward": 3.2
  },
  {
    "phase": "TASK",
    "condition": "Cond1",
    "trial_num": 60,
    "trial_length": 10,
    "click_num": 7,
    "RT": 647,
    "action": 0,
    "reward": 3.2
  },
  {
    "phase": "TASK",
    "condition": "Cond1",
    "trial_num": 60,
    "trial_length": 10,
    "click_num": 8,
    "RT": 640,
    "action": 0,
    "reward": 3.2
  },
  {
    "phase": "TASK",
    "condition": "Cond1",
    "trial_num": 60,
    "trial_length": 10,
    "click_num": 9,
    "RT": 627,
    "action": 0,
    "reward": 3.2
  },
  {
    "phase": "TASK",
    "condition": "Cond1",
    "trial_num": 60,
    "trial_length": 10,
    "click_num": 10,
    "RT": 700,
    "action": 0,
    "reward": 3.2
  },
  {
    "phase": "TASK",
    "condition": "Cond1",
    "trial_num": 61,
    "trial_length": 10,
    "click_num": 1,
    "RT": 991,
    "action": 1,
    "reward": 3.4
  },
  {
    "phase": "TASK",
    "condition": "Cond1",
    "trial_num": 61,
    "trial_length": 10,
    "click_num": 2,
    "RT": 1335,
    "action": 1,
    "reward": 1.9
  },
  {
    "phase": "TASK",
    "condition": "Cond1",
    "trial_num": 61,
    "trial_length": 10,
    "click_num": 3,
    "RT": 1561,
    "action": 1,
    "reward": 2.1
  },
  {
    "phase": "TASK",
    "condition": "Cond1",
    "trial_num": 61,
    "trial_length": 10,
    "click_num": 4,
    "RT": 1336,
    "action": 1,
    "reward": 3.3
  },
  {
    "phase": "TASK",
    "condition": "Cond1",
    "trial_num": 61,
    "trial_length": 10,
    "click_num": 5,
    "RT": 1328,
    "action": 1,
    "reward": 2.7
  },
  {
    "phase": "TASK",
    "condition": "Cond1",
    "trial_num": 61,
    "trial_length": 10,
    "click_num": 6,
    "RT": 1208,
    "action": 1,
    "reward": 2.7
  },
  {
    "phase": "TASK",
    "condition": "Cond1",
    "trial_num": 61,
    "trial_length": 10,
    "click_num": 7,
    "RT": 1131,
    "action": 0,
    "reward": 3.4
  },
  {
    "phase": "TASK",
    "condition": "Cond1",
    "trial_num": 61,
    "trial_length": 10,
    "click_num": 8,
    "RT": 1069,
    "action": 0,
    "reward": 3.4
  },
  {
    "phase": "TASK",
    "condition": "Cond1",
    "trial_num": 61,
    "trial_length": 10,
    "click_num": 9,
    "RT": 713,
    "action": 0,
    "reward": 3.4
  },
  {
    "phase": "TASK",
    "condition": "Cond1",
    "trial_num": 61,
    "trial_length": 10,
    "click_num": 10,
    "RT": 665,
    "action": 0,
    "reward": 3.4
  },
  {
    "phase": "TASK",
    "condition": "Cond1",
    "trial_num": 62,
    "trial_length": 7,
    "click_num": 1,
    "RT": 1371,
    "action": 1,
    "reward": 2.9
  },
  {
    "phase": "TASK",
    "condition": "Cond1",
    "trial_num": 62,
    "trial_length": 7,
    "click_num": 2,
    "RT": 1081,
    "action": 1,
    "reward": 2.8
  },
  {
    "phase": "TASK",
    "condition": "Cond1",
    "trial_num": 62,
    "trial_length": 7,
    "click_num": 3,
    "RT": 1359,
    "action": 1,
    "reward": 2.8
  },
  {
    "phase": "TASK",
    "condition": "Cond1",
    "trial_num": 62,
    "trial_length": 7,
    "click_num": 4,
    "RT": 1544,
    "action": 1,
    "reward": 2.8
  },
  {
    "phase": "TASK",
    "condition": "Cond1",
    "trial_num": 62,
    "trial_length": 7,
    "click_num": 5,
    "RT": 1465,
    "action": 0,
    "reward": 2.9
  },
  {
    "phase": "TASK",
    "condition": "Cond1",
    "trial_num": 62,
    "trial_length": 7,
    "click_num": 6,
    "RT": 1408,
    "action": 0,
    "reward": 2.9
  },
  {
    "phase": "TASK",
    "condition": "Cond1",
    "trial_num": 62,
    "trial_length": 7,
    "click_num": 7,
    "RT": 864,
    "action": 0,
    "reward": 2.9
  },
  {
    "phase": "TASK",
    "condition": "Cond1",
    "trial_num": 63,
    "trial_length": 5,
    "click_num": 1,
    "RT": 1776,
    "action": 1,
    "reward": 3.5
  },
  {
    "phase": "TASK",
    "condition": "Cond1",
    "trial_num": 63,
    "trial_length": 5,
    "click_num": 2,
    "RT": 1685,
    "action": 0,
    "reward": 3.5
  },
  {
    "phase": "TASK",
    "condition": "Cond1",
    "trial_num": 63,
    "trial_length": 5,
    "click_num": 3,
    "RT": 768,
    "action": 0,
    "reward": 3.5
  },
  {
    "phase": "TASK",
    "condition": "Cond1",
    "trial_num": 63,
    "trial_length": 5,
    "click_num": 4,
    "RT": 722,
    "action": 0,
    "reward": 3.5
  },
  {
    "phase": "TASK",
    "condition": "Cond1",
    "trial_num": 63,
    "trial_length": 5,
    "click_num": 5,
    "RT": 1258,
    "action": 0,
    "reward": 3.5
  },
  {
    "phase": "TASK",
    "condition": "Cond1",
    "trial_num": 64,
    "trial_length": 7,
    "click_num": 1,
    "RT": 1269,
    "action": 1,
    "reward": 2.6
  },
  {
    "phase": "TASK",
    "condition": "Cond1",
    "trial_num": 64,
    "trial_length": 7,
    "click_num": 2,
    "RT": 2376,
    "action": 1,
    "reward": 2.6
  },
  {
    "phase": "TASK",
    "condition": "Cond1",
    "trial_num": 64,
    "trial_length": 7,
    "click_num": 3,
    "RT": 3080,
    "action": 1,
    "reward": 2.1
  },
  {
    "phase": "TASK",
    "condition": "Cond1",
    "trial_num": 64,
    "trial_length": 7,
    "click_num": 4,
    "RT": 1175,
    "action": 1,
    "reward": 4
  },
  {
    "phase": "TASK",
    "condition": "Cond1",
    "trial_num": 64,
    "trial_length": 7,
    "click_num": 5,
    "RT": 1147,
    "action": 0,
    "reward": 4
  },
  {
    "phase": "TASK",
    "condition": "Cond1",
    "trial_num": 64,
    "trial_length": 7,
    "click_num": 6,
    "RT": 686,
    "action": 0,
    "reward": 4
  },
  {
    "phase": "TASK",
    "condition": "Cond1",
    "trial_num": 64,
    "trial_length": 7,
    "click_num": 7,
    "RT": 688,
    "action": 0,
    "reward": 4
  },
  {
    "phase": "TASK",
    "condition": "Cond1",
    "trial_num": 65,
    "trial_length": 9,
    "click_num": 1,
    "RT": 1161,
    "action": 1,
    "reward": 3
  },
  {
    "phase": "TASK",
    "condition": "Cond1",
    "trial_num": 65,
    "trial_length": 9,
    "click_num": 2,
    "RT": 1148,
    "action": 1,
    "reward": 3.4
  },
  {
    "phase": "TASK",
    "condition": "Cond1",
    "trial_num": 65,
    "trial_length": 9,
    "click_num": 3,
    "RT": 1401,
    "action": 1,
    "reward": 3.2
  },
  {
    "phase": "TASK",
    "condition": "Cond1",
    "trial_num": 65,
    "trial_length": 9,
    "click_num": 4,
    "RT": 1247,
    "action": 0,
    "reward": 3.4
  },
  {
    "phase": "TASK",
    "condition": "Cond1",
    "trial_num": 65,
    "trial_length": 9,
    "click_num": 5,
    "RT": 1425,
    "action": 0,
    "reward": 3.4
  },
  {
    "phase": "TASK",
    "condition": "Cond1",
    "trial_num": 65,
    "trial_length": 9,
    "click_num": 6,
    "RT": 671,
    "action": 0,
    "reward": 3.4
  },
  {
    "phase": "TASK",
    "condition": "Cond1",
    "trial_num": 65,
    "trial_length": 9,
    "click_num": 7,
    "RT": 601,
    "action": 0,
    "reward": 3.4
  },
  {
    "phase": "TASK",
    "condition": "Cond1",
    "trial_num": 65,
    "trial_length": 9,
    "click_num": 8,
    "RT": 1136,
    "action": 0,
    "reward": 3.4
  },
  {
    "phase": "TASK",
    "condition": "Cond1",
    "trial_num": 65,
    "trial_length": 9,
    "click_num": 9,
    "RT": 504,
    "action": 0,
    "reward": 3.4
  },
  {
    "phase": "TASK",
    "condition": "Cond1",
    "trial_num": 66,
    "trial_length": 10,
    "click_num": 1,
    "RT": 1727,
    "action": 1,
    "reward": 3.1
  },
  {
    "phase": "TASK",
    "condition": "Cond1",
    "trial_num": 66,
    "trial_length": 10,
    "click_num": 2,
    "RT": 2264,
    "action": 1,
    "reward": 3.2
  },
  {
    "phase": "TASK",
    "condition": "Cond1",
    "trial_num": 66,
    "trial_length": 10,
    "click_num": 3,
    "RT": 1000,
    "action": 1,
    "reward": 2
  },
  {
    "phase": "TASK",
    "condition": "Cond1",
    "trial_num": 66,
    "trial_length": 10,
    "click_num": 4,
    "RT": 1272,
    "action": 1,
    "reward": 2.7
  },
  {
    "phase": "TASK",
    "condition": "Cond1",
    "trial_num": 66,
    "trial_length": 10,
    "click_num": 5,
    "RT": 1136,
    "action": 1,
    "reward": 2.6
  },
  {
    "phase": "TASK",
    "condition": "Cond1",
    "trial_num": 66,
    "trial_length": 10,
    "click_num": 6,
    "RT": 1479,
    "action": 0,
    "reward": 3.2
  },
  {
    "phase": "TASK",
    "condition": "Cond1",
    "trial_num": 66,
    "trial_length": 10,
    "click_num": 7,
    "RT": 713,
    "action": 0,
    "reward": 3.2
  },
  {
    "phase": "TASK",
    "condition": "Cond1",
    "trial_num": 66,
    "trial_length": 10,
    "click_num": 8,
    "RT": 696,
    "action": 0,
    "reward": 3.2
  },
  {
    "phase": "TASK",
    "condition": "Cond1",
    "trial_num": 66,
    "trial_length": 10,
    "click_num": 9,
    "RT": 680,
    "action": 0,
    "reward": 3.2
  },
  {
    "phase": "TASK",
    "condition": "Cond1",
    "trial_num": 66,
    "trial_length": 10,
    "click_num": 10,
    "RT": 616,
    "action": 0,
    "reward": 3.2
  },
  {
    "phase": "TASK",
    "condition": "Cond1",
    "trial_num": 67,
    "trial_length": 7,
    "click_num": 1,
    "RT": 1223,
    "action": 1,
    "reward": 3.1
  },
  {
    "phase": "TASK",
    "condition": "Cond1",
    "trial_num": 67,
    "trial_length": 7,
    "click_num": 2,
    "RT": 1768,
    "action": 1,
    "reward": 3.7
  },
  {
    "phase": "TASK",
    "condition": "Cond1",
    "trial_num": 67,
    "trial_length": 7,
    "click_num": 3,
    "RT": 1251,
    "action": 0,
    "reward": 3.7
  },
  {
    "phase": "TASK",
    "condition": "Cond1",
    "trial_num": 67,
    "trial_length": 7,
    "click_num": 4,
    "RT": 648,
    "action": 0,
    "reward": 3.7
  },
  {
    "phase": "TASK",
    "condition": "Cond1",
    "trial_num": 67,
    "trial_length": 7,
    "click_num": 5,
    "RT": 638,
    "action": 0,
    "reward": 3.7
  },
  {
    "phase": "TASK",
    "condition": "Cond1",
    "trial_num": 67,
    "trial_length": 7,
    "click_num": 6,
    "RT": 608,
    "action": 0,
    "reward": 3.7
  },
  {
    "phase": "TASK",
    "condition": "Cond1",
    "trial_num": 67,
    "trial_length": 7,
    "click_num": 7,
    "RT": 1031,
    "action": 0,
    "reward": 3.7
  },
  {
    "phase": "TASK",
    "condition": "Cond1",
    "trial_num": 68,
    "trial_length": 9,
    "click_num": 1,
    "RT": 1088,
    "action": 1,
    "reward": 2.5
  },
  {
    "phase": "TASK",
    "condition": "Cond1",
    "trial_num": 68,
    "trial_length": 9,
    "click_num": 2,
    "RT": 1866,
    "action": 1,
    "reward": 3.5
  },
  {
    "phase": "TASK",
    "condition": "Cond1",
    "trial_num": 68,
    "trial_length": 9,
    "click_num": 3,
    "RT": 1702,
    "action": 1,
    "reward": 2.2
  },
  {
    "phase": "TASK",
    "condition": "Cond1",
    "trial_num": 68,
    "trial_length": 9,
    "click_num": 4,
    "RT": 1880,
    "action": 1,
    "reward": 3.7
  },
  {
    "phase": "TASK",
    "condition": "Cond1",
    "trial_num": 68,
    "trial_length": 9,
    "click_num": 5,
    "RT": 922,
    "action": 0,
    "reward": 3.7
  },
  {
    "phase": "TASK",
    "condition": "Cond1",
    "trial_num": 68,
    "trial_length": 9,
    "click_num": 6,
    "RT": 654,
    "action": 0,
    "reward": 3.7
  },
  {
    "phase": "TASK",
    "condition": "Cond1",
    "trial_num": 68,
    "trial_length": 9,
    "click_num": 7,
    "RT": 544,
    "action": 0,
    "reward": 3.7
  },
  {
    "phase": "TASK",
    "condition": "Cond1",
    "trial_num": 68,
    "trial_length": 9,
    "click_num": 8,
    "RT": 587,
    "action": 0,
    "reward": 3.7
  },
  {
    "phase": "TASK",
    "condition": "Cond1",
    "trial_num": 68,
    "trial_length": 9,
    "click_num": 9,
    "RT": 637,
    "action": 0,
    "reward": 3.7
  },
  {
    "phase": "TASK",
    "condition": "Cond1",
    "trial_num": 69,
    "trial_length": 10,
    "click_num": 1,
    "RT": 1270,
    "action": 1,
    "reward": 3.3
  },
  {
    "phase": "TASK",
    "condition": "Cond1",
    "trial_num": 69,
    "trial_length": 10,
    "click_num": 2,
    "RT": 1208,
    "action": 1,
    "reward": 3.7
  },
  {
    "phase": "TASK",
    "condition": "Cond1",
    "trial_num": 69,
    "trial_length": 10,
    "click_num": 3,
    "RT": 1392,
    "action": 0,
    "reward": 3.7
  },
  {
    "phase": "TASK",
    "condition": "Cond1",
    "trial_num": 69,
    "trial_length": 10,
    "click_num": 4,
    "RT": 647,
    "action": 0,
    "reward": 3.7
  },
  {
    "phase": "TASK",
    "condition": "Cond1",
    "trial_num": 69,
    "trial_length": 10,
    "click_num": 5,
    "RT": 619,
    "action": 0,
    "reward": 3.7
  },
  {
    "phase": "TASK",
    "condition": "Cond1",
    "trial_num": 69,
    "trial_length": 10,
    "click_num": 6,
    "RT": 661,
    "action": 0,
    "reward": 3.7
  },
  {
    "phase": "TASK",
    "condition": "Cond1",
    "trial_num": 69,
    "trial_length": 10,
    "click_num": 7,
    "RT": 1201,
    "action": 0,
    "reward": 3.7
  },
  {
    "phase": "TASK",
    "condition": "Cond1",
    "trial_num": 69,
    "trial_length": 10,
    "click_num": 8,
    "RT": 567,
    "action": 0,
    "reward": 3.7
  },
  {
    "phase": "TASK",
    "condition": "Cond1",
    "trial_num": 69,
    "trial_length": 10,
    "click_num": 9,
    "RT": 689,
    "action": 0,
    "reward": 3.7
  },
  {
    "phase": "TASK",
    "condition": "Cond1",
    "trial_num": 69,
    "trial_length": 10,
    "click_num": 10,
    "RT": 639,
    "action": 0,
    "reward": 3.7
  },
  {
    "phase": "TASK",
    "condition": "Cond1",
    "trial_num": 70,
    "trial_length": 5,
    "click_num": 1,
    "RT": 886,
    "action": 1,
    "reward": 2.8
  },
  {
    "phase": "TASK",
    "condition": "Cond1",
    "trial_num": 70,
    "trial_length": 5,
    "click_num": 2,
    "RT": 1209,
    "action": 1,
    "reward": 2.9
  },
  {
    "phase": "TASK",
    "condition": "Cond1",
    "trial_num": 70,
    "trial_length": 5,
    "click_num": 3,
    "RT": 967,
    "action": 1,
    "reward": 3.1
  },
  {
    "phase": "TASK",
    "condition": "Cond1",
    "trial_num": 70,
    "trial_length": 5,
    "click_num": 4,
    "RT": 888,
    "action": 1,
    "reward": 3
  },
  {
    "phase": "TASK",
    "condition": "Cond1",
    "trial_num": 70,
    "trial_length": 5,
    "click_num": 5,
    "RT": 1402,
    "action": 0,
    "reward": 3.1
  },
  {
    "phase": "TASK",
    "condition": "Cond1",
    "trial_num": 71,
    "trial_length": 10,
    "click_num": 1,
    "RT": 1272,
    "action": 1,
    "reward": 2.8
  },
  {
    "phase": "TASK",
    "condition": "Cond1",
    "trial_num": 71,
    "trial_length": 10,
    "click_num": 2,
    "RT": 2352,
    "action": 1,
    "reward": 3.3
  },
  {
    "phase": "TASK",
    "condition": "Cond1",
    "trial_num": 71,
    "trial_length": 10,
    "click_num": 3,
    "RT": 1232,
    "action": 1,
    "reward": 3.5
  },
  {
    "phase": "TASK",
    "condition": "Cond1",
    "trial_num": 71,
    "trial_length": 10,
    "click_num": 4,
    "RT": 1601,
    "action": 0,
    "reward": 3.5
  },
  {
    "phase": "TASK",
    "condition": "Cond1",
    "trial_num": 71,
    "trial_length": 10,
    "click_num": 5,
    "RT": 647,
    "action": 0,
    "reward": 3.5
  },
  {
    "phase": "TASK",
    "condition": "Cond1",
    "trial_num": 71,
    "trial_length": 10,
    "click_num": 6,
    "RT": 608,
    "action": 0,
    "reward": 3.5
  },
  {
    "phase": "TASK",
    "condition": "Cond1",
    "trial_num": 71,
    "trial_length": 10,
    "click_num": 7,
    "RT": 584,
    "action": 0,
    "reward": 3.5
  },
  {
    "phase": "TASK",
    "condition": "Cond1",
    "trial_num": 71,
    "trial_length": 10,
    "click_num": 8,
    "RT": 560,
    "action": 0,
    "reward": 3.5
  },
  {
    "phase": "TASK",
    "condition": "Cond1",
    "trial_num": 71,
    "trial_length": 10,
    "click_num": 9,
    "RT": 948,
    "action": 0,
    "reward": 3.5
  },
  {
    "phase": "TASK",
    "condition": "Cond1",
    "trial_num": 71,
    "trial_length": 10,
    "click_num": 10,
    "RT": 1292,
    "action": 0,
    "reward": 3.5
  },
  {
    "phase": "TASK",
    "condition": "Cond1",
    "trial_num": 72,
    "trial_length": 10,
    "click_num": 1,
    "RT": 1190,
    "action": 1,
    "reward": 2.4
  },
  {
    "phase": "TASK",
    "condition": "Cond1",
    "trial_num": 72,
    "trial_length": 10,
    "click_num": 2,
    "RT": 3391,
    "action": 1,
    "reward": 3.5
  },
  {
    "phase": "TASK",
    "condition": "Cond1",
    "trial_num": 72,
    "trial_length": 10,
    "click_num": 3,
    "RT": 1095,
    "action": 0,
    "reward": 3.5
  },
  {
    "phase": "TASK",
    "condition": "Cond1",
    "trial_num": 72,
    "trial_length": 10,
    "click_num": 4,
    "RT": 609,
    "action": 0,
    "reward": 3.5
  },
  {
    "phase": "TASK",
    "condition": "Cond1",
    "trial_num": 72,
    "trial_length": 10,
    "click_num": 5,
    "RT": 585,
    "action": 0,
    "reward": 3.5
  },
  {
    "phase": "TASK",
    "condition": "Cond1",
    "trial_num": 72,
    "trial_length": 10,
    "click_num": 6,
    "RT": 616,
    "action": 0,
    "reward": 3.5
  },
  {
    "phase": "TASK",
    "condition": "Cond1",
    "trial_num": 72,
    "trial_length": 10,
    "click_num": 7,
    "RT": 584,
    "action": 0,
    "reward": 3.5
  },
  {
    "phase": "TASK",
    "condition": "Cond1",
    "trial_num": 72,
    "trial_length": 10,
    "click_num": 8,
    "RT": 631,
    "action": 0,
    "reward": 3.5
  },
  {
    "phase": "TASK",
    "condition": "Cond1",
    "trial_num": 72,
    "trial_length": 10,
    "click_num": 9,
    "RT": 641,
    "action": 0,
    "reward": 3.5
  },
  {
    "phase": "TASK",
    "condition": "Cond1",
    "trial_num": 72,
    "trial_length": 10,
    "click_num": 10,
    "RT": 1106,
    "action": 0,
    "reward": 3.5
  },
  {
    "phase": "TASK",
    "condition": "Cond1",
    "trial_num": 73,
    "trial_length": 9,
    "click_num": 1,
    "RT": 1069,
    "action": 1,
    "reward": 2.4
  },
  {
    "phase": "TASK",
    "condition": "Cond1",
    "trial_num": 73,
    "trial_length": 9,
    "click_num": 2,
    "RT": 1872,
    "action": 1,
    "reward": 2.8
  },
  {
    "phase": "TASK",
    "condition": "Cond1",
    "trial_num": 73,
    "trial_length": 9,
    "click_num": 3,
    "RT": 1064,
    "action": 1,
    "reward": 2.5
  },
  {
    "phase": "TASK",
    "condition": "Cond1",
    "trial_num": 73,
    "trial_length": 9,
    "click_num": 4,
    "RT": 1115,
    "action": 1,
    "reward": 3.6
  },
  {
    "phase": "TASK",
    "condition": "Cond1",
    "trial_num": 73,
    "trial_length": 9,
    "click_num": 5,
    "RT": 1006,
    "action": 0,
    "reward": 3.6
  },
  {
    "phase": "TASK",
    "condition": "Cond1",
    "trial_num": 73,
    "trial_length": 9,
    "click_num": 6,
    "RT": 1264,
    "action": 0,
    "reward": 3.6
  },
  {
    "phase": "TASK",
    "condition": "Cond1",
    "trial_num": 73,
    "trial_length": 9,
    "click_num": 7,
    "RT": 751,
    "action": 0,
    "reward": 3.6
  },
  {
    "phase": "TASK",
    "condition": "Cond1",
    "trial_num": 73,
    "trial_length": 9,
    "click_num": 8,
    "RT": 736,
    "action": 0,
    "reward": 3.6
  },
  {
    "phase": "TASK",
    "condition": "Cond1",
    "trial_num": 73,
    "trial_length": 9,
    "click_num": 9,
    "RT": 753,
    "action": 0,
    "reward": 3.6
  },
  {
    "phase": "TASK",
    "condition": "Cond1",
    "trial_num": 74,
    "trial_length": 7,
    "click_num": 1,
    "RT": 1590,
    "action": 1,
    "reward": 2.7
  },
  {
    "phase": "TASK",
    "condition": "Cond1",
    "trial_num": 74,
    "trial_length": 7,
    "click_num": 2,
    "RT": 1977,
    "action": 1,
    "reward": 3.2
  },
  {
    "phase": "TASK",
    "condition": "Cond1",
    "trial_num": 74,
    "trial_length": 7,
    "click_num": 3,
    "RT": 1176,
    "action": 1,
    "reward": 3.4
  },
  {
    "phase": "TASK",
    "condition": "Cond1",
    "trial_num": 74,
    "trial_length": 7,
    "click_num": 4,
    "RT": 2519,
    "action": 0,
    "reward": 3.4
  },
  {
    "phase": "TASK",
    "condition": "Cond1",
    "trial_num": 74,
    "trial_length": 7,
    "click_num": 5,
    "RT": 625,
    "action": 0,
    "reward": 3.4
  },
  {
    "phase": "TASK",
    "condition": "Cond1",
    "trial_num": 74,
    "trial_length": 7,
    "click_num": 6,
    "RT": 654,
    "action": 0,
    "reward": 3.4
  },
  {
    "phase": "TASK",
    "condition": "Cond1",
    "trial_num": 74,
    "trial_length": 7,
    "click_num": 7,
    "RT": 618,
    "action": 0,
    "reward": 3.4
  },
  {
    "phase": "TASK",
    "condition": "Cond1",
    "trial_num": 75,
    "trial_length": 9,
    "click_num": 1,
    "RT": 903,
    "action": 1,
    "reward": 4
  },
  {
    "phase": "TASK",
    "condition": "Cond1",
    "trial_num": 75,
    "trial_length": 9,
    "click_num": 2,
    "RT": 1407,
    "action": 0,
    "reward": 4
  },
  {
    "phase": "TASK",
    "condition": "Cond1",
    "trial_num": 75,
    "trial_length": 9,
    "click_num": 3,
    "RT": 638,
    "action": 0,
    "reward": 4
  },
  {
    "phase": "TASK",
    "condition": "Cond1",
    "trial_num": 75,
    "trial_length": 9,
    "click_num": 4,
    "RT": 635,
    "action": 0,
    "reward": 4
  },
  {
    "phase": "TASK",
    "condition": "Cond1",
    "trial_num": 75,
    "trial_length": 9,
    "click_num": 5,
    "RT": 586,
    "action": 0,
    "reward": 4
  },
  {
    "phase": "TASK",
    "condition": "Cond1",
    "trial_num": 75,
    "trial_length": 9,
    "click_num": 6,
    "RT": 612,
    "action": 0,
    "reward": 4
  },
  {
    "phase": "TASK",
    "condition": "Cond1",
    "trial_num": 75,
    "trial_length": 9,
    "click_num": 7,
    "RT": 625,
    "action": 0,
    "reward": 4
  },
  {
    "phase": "TASK",
    "condition": "Cond1",
    "trial_num": 75,
    "trial_length": 9,
    "click_num": 8,
    "RT": 623,
    "action": 0,
    "reward": 4
  },
  {
    "phase": "TASK",
    "condition": "Cond1",
    "trial_num": 75,
    "trial_length": 9,
    "click_num": 9,
    "RT": 697,
    "action": 0,
    "reward": 4
  },
  {
    "phase": "TASK",
    "condition": "Cond1",
    "trial_num": 76,
    "trial_length": 6,
    "click_num": 1,
    "RT": 1487,
    "action": 1,
    "reward": 2.2
  },
  {
    "phase": "TASK",
    "condition": "Cond1",
    "trial_num": 76,
    "trial_length": 6,
    "click_num": 2,
    "RT": 1336,
    "action": 1,
    "reward": 3.4
  },
  {
    "phase": "TASK",
    "condition": "Cond1",
    "trial_num": 76,
    "trial_length": 6,
    "click_num": 3,
    "RT": 1430,
    "action": 1,
    "reward": 3.7
  },
  {
    "phase": "TASK",
    "condition": "Cond1",
    "trial_num": 76,
    "trial_length": 6,
    "click_num": 4,
    "RT": 923,
    "action": 0,
    "reward": 3.7
  },
  {
    "phase": "TASK",
    "condition": "Cond1",
    "trial_num": 76,
    "trial_length": 6,
    "click_num": 5,
    "RT": 589,
    "action": 0,
    "reward": 3.7
  },
  {
    "phase": "TASK",
    "condition": "Cond1",
    "trial_num": 76,
    "trial_length": 6,
    "click_num": 6,
    "RT": 576,
    "action": 0,
    "reward": 3.7
  },
  {
    "phase": "TASK",
    "condition": "Cond1",
    "trial_num": 77,
    "trial_length": 6,
    "click_num": 1,
    "RT": 1005,
    "action": 1,
    "reward": 3.2
  },
  {
    "phase": "TASK",
    "condition": "Cond1",
    "trial_num": 77,
    "trial_length": 6,
    "click_num": 2,
    "RT": 1931,
    "action": 1,
    "reward": 2.9
  },
  {
    "phase": "TASK",
    "condition": "Cond1",
    "trial_num": 77,
    "trial_length": 6,
    "click_num": 3,
    "RT": 1053,
    "action": 0,
    "reward": 3.2
  },
  {
    "phase": "TASK",
    "condition": "Cond1",
    "trial_num": 77,
    "trial_length": 6,
    "click_num": 4,
    "RT": 641,
    "action": 0,
    "reward": 3.2
  },
  {
    "phase": "TASK",
    "condition": "Cond1",
    "trial_num": 77,
    "trial_length": 6,
    "click_num": 5,
    "RT": 779,
    "action": 0,
    "reward": 3.2
  },
  {
    "phase": "TASK",
    "condition": "Cond1",
    "trial_num": 77,
    "trial_length": 6,
    "click_num": 6,
    "RT": 771,
    "action": 0,
    "reward": 3.2
  },
  {
    "phase": "TASK",
    "condition": "Cond1",
    "trial_num": 78,
    "trial_length": 9,
    "click_num": 1,
    "RT": 1070,
    "action": 1,
    "reward": 3.1
  },
  {
    "phase": "TASK",
    "condition": "Cond1",
    "trial_num": 78,
    "trial_length": 9,
    "click_num": 2,
    "RT": 1352,
    "action": 1,
    "reward": 2.8
  },
  {
    "phase": "TASK",
    "condition": "Cond1",
    "trial_num": 78,
    "trial_length": 9,
    "click_num": 3,
    "RT": 1112,
    "action": 1,
    "reward": 3.3
  },
  {
    "phase": "TASK",
    "condition": "Cond1",
    "trial_num": 78,
    "trial_length": 9,
    "click_num": 4,
    "RT": 1407,
    "action": 0,
    "reward": 3.3
  },
  {
    "phase": "TASK",
    "condition": "Cond1",
    "trial_num": 78,
    "trial_length": 9,
    "click_num": 5,
    "RT": 613,
    "action": 0,
    "reward": 3.3
  },
  {
    "phase": "TASK",
    "condition": "Cond1",
    "trial_num": 78,
    "trial_length": 9,
    "click_num": 6,
    "RT": 589,
    "action": 0,
    "reward": 3.3
  },
  {
    "phase": "TASK",
    "condition": "Cond1",
    "trial_num": 78,
    "trial_length": 9,
    "click_num": 7,
    "RT": 656,
    "action": 0,
    "reward": 3.3
  },
  {
    "phase": "TASK",
