[
  {
    "phase": "TASK",
    "condition": "Cond1",
    "trial_num": 1,
    "trial_length": 7,
    "click_num": 1,
    "RT": 3740,
    "action": 1,
    "reward": 2.9
  },
  {
    "phase": "TASK",
    "condition": "Cond1",
    "trial_num": 1,
    "trial_length": 7,
    "click_num": 2,
    "RT": 5789,
    "action": 1,
    "reward": 3.9
  },
  {
    "phase": "TASK",
    "condition": "Cond1",
    "trial_num": 1,
    "trial_length": 7,
    "click_num": 3,
    "RT": 12007,
    "action": 0,
    "reward": 3.9
  },
  {
    "phase": "TASK",
    "condition": "Cond1",
    "trial_num": 1,
    "trial_length": 7,
    "click_num": 4,
    "RT": 4712,
    "action": 0,
    "reward": 3.9
  },
  {
    "phase": "TASK",
    "condition": "Cond1",
    "trial_num": 1,
    "trial_length": 7,
    "click_num": 5,
    "RT": 1032,
    "action": 0,
    "reward": 3.9
  },
  {
    "phase": "TASK",
    "condition": "Cond1",
    "trial_num": 1,
    "trial_length": 7,
    "click_num": 6,
    "RT": 1049,
    "action": 0,
    "reward": 3.9
  },
  {
    "phase": "TASK",
    "condition": "Cond1",
    "trial_num": 1,
    "trial_length": 7,
    "click_num": 7,
    "RT": 1391,
    "action": 0,
    "reward": 3.9
  },
  {
    "phase": "TASK",
    "condition": "Cond1",
    "trial_num": 2,
    "trial_length": 6,
    "click_num": 1,
    "RT": 2386,
    "action": 1,
    "reward": 3.3
  },
  {
    "phase": "TASK",
    "condition": "Cond1",
    "trial_num": 2,
    "trial_length": 6,
    "click_num": 2,
    "RT": 2345,
    "action": 1,
    "reward": 2.8
  },
  {
    "phase": "TASK",
    "condition": "Cond1",
    "trial_num": 2,
    "trial_length": 6,
    "click_num": 3,
    "RT": 1784,
    "action": 1,
    "reward": 3.1
  },
  {
    "phase": "TASK",
    "condition": "Cond1",
    "trial_num": 2,
    "trial_length": 6,
    "click_num": 4,
    "RT": 3696,
    "action": 1,
    "reward": 2
  },
  {
    "phase": "TASK",
    "condition": "Cond1",
    "trial_num": 2,
    "trial_length": 6,
    "click_num": 5,
    "RT": 3983,
    "action": 0,
    "reward": 3.3
  },
  {
    "phase": "TASK",
    "condition": "Cond1",
    "trial_num": 2,
    "trial_length": 6,
    "click_num": 6,
    "RT": 1937,
    "action": 1,
    "reward": 2.6
  },
  {
    "phase": "TASK",
    "condition": "Cond1",
    "trial_num": 3,
    "trial_length": 9,
    "click_num": 1,
    "RT": 1495,
    "action": 1,
    "reward": 4
  },
  {
    "phase": "TASK",
    "condition": "Cond1",
    "trial_num": 3,
    "trial_length": 9,
    "click_num": 2,
    "RT": 2608,
    "action": 0,
    "reward": 4
  },
  {
    "phase": "TASK",
    "condition": "Cond1",
    "trial_num": 3,
    "trial_length": 9,
    "click_num": 3,
    "RT": 1280,
    "action": 0,
    "reward": 4
  },
  {
    "phase": "TASK",
    "condition": "Cond1",
    "trial_num": 3,
    "trial_length": 9,
    "click_num": 4,
    "RT": 1025,
    "action": 0,
    "reward": 4
  },
  {
    "phase": "TASK",
    "condition": "Cond1",
    "trial_num": 3,
    "trial_length": 9,
    "click_num": 5,
    "RT": 1088,
    "action": 0,
    "reward": 4
  },
  {
    "phase": "TASK",
    "condition": "Cond1",
    "trial_num": 3,
    "trial_length": 9,
    "click_num": 6,
    "RT": 1032,
    "action": 0,
    "reward": 4
  },
  {
    "phase": "TASK",
    "condition": "Cond1",
    "trial_num": 3,
    "trial_length": 9,
    "click_num": 7,
    "RT": 919,
    "action": 0,
    "reward": 4
  },
  {
    "phase": "TASK",
    "condition": "Cond1",
    "trial_num": 3,
    "trial_length": 9,
    "click_num": 8,
    "RT": 1058,
    "action": 0,
    "reward": 4
  },
  {
    "phase": "TASK",
    "condition": "Cond1",
    "trial_num": 3,
    "trial_length": 9,
    "click_num": 9,
    "RT": 1135,
    "action": 0,
    "reward": 4
  },
  {
    "phase": "TASK",
    "condition": "Cond1",
    "trial_num": 4,
    "trial_length": 8,
    "click_num": 1,
    "RT": 2125,
    "action": 1,
    "reward": 2.8
  },
  {
    "phase": "TASK",
    "condition": "Cond1",
    "trial_num": 4,
    "trial_length": 8,
    "click_num": 2,
    "RT": 2361,
    "action": 1,
    "reward": 3.1
  },
  {
    "phase": "TASK",
    "condition": "Cond1",
    "trial_num": 4,
    "trial_length": 8,
    "click_num": 3,
    "RT": 1519,
    "action": 1,
    "reward": 3.3
  },
  {
    "phase": "TASK",
    "condition": "Cond1",
    "trial_num": 4,
    "trial_length": 8,
    "click_num": 4,
    "RT": 1624,
    "action": 1,
    "reward": 3
  },
  {
    "phase": "TASK",
    "condition": "Cond1",
    "trial_num": 4,
    "trial_length": 8,
    "click_num": 5,
    "RT": 2137,
    "action": 1,
    "reward": 2
  },
  {
    "phase": "TASK",
    "condition": "Cond1",
    "trial_num": 4,
    "trial_length": 8,
    "click_num": 6,
    "RT": 3066,
    "action": 0,
    "reward": 3.3
  },
  {
    "phase": "TASK",
    "condition": "Cond1",
    "trial_num": 4,
    "trial_length": 8,
    "click_num": 7,
    "RT": 2126,
    "action": 0,
    "reward": 3.3
  },
  {
    "phase": "TASK",
    "condition": "Cond1",
    "trial_num": 4,
    "trial_length": 8,
    "click_num": 8,
    "RT": 1079,
    "action": 0,
    "reward": 3.3
  },
  {
    "phase": "TASK",
    "condition": "Cond1",
    "trial_num": 5,
    "trial_length": 7,
    "click_num": 1,
    "RT": 1638,
    "action": 1,
    "reward": 3.7
  },
  {
    "phase": "TASK",
    "condition": "Cond1",
    "trial_num": 5,
    "trial_length": 7,
    "click_num": 2,
    "RT": 2480,
    "action": 0,
    "reward": 3.7
  },
  {
    "phase": "TASK",
    "condition": "Cond1",
    "trial_num": 5,
    "trial_length": 7,
    "click_num": 3,
    "RT": 1120,
    "action": 0,
    "reward": 3.7
  },
  {
    "phase": "TASK",
    "condition": "Cond1",
    "trial_num": 5,
    "trial_length": 7,
    "click_num": 4,
    "RT": 960,
    "action": 0,
    "reward": 3.7
  },
  {
    "phase": "TASK",
    "condition": "Cond1",
    "trial_num": 5,
    "trial_length": 7,
    "click_num": 5,
    "RT": 888,
    "action": 0,
    "reward": 3.7
  },
  {
    "phase": "TASK",
    "condition": "Cond1",
    "trial_num": 5,
    "trial_length": 7,
    "click_num": 6,
    "RT": 888,
    "action": 0,
    "reward": 3.7
  },
  {
    "phase": "TASK",
    "condition": "Cond1",
    "trial_num": 5,
    "trial_length": 7,
    "click_num": 7,
    "RT": 991,
    "action": 0,
    "reward": 3.7
  },
  {
    "phase": "TASK",
    "condition": "Cond1",
    "trial_num": 6,
    "trial_length": 6,
    "click_num": 1,
    "RT": 3584,
    "action": 1,
    "reward": 3.7
  },
  {
    "phase": "TASK",
    "condition": "Cond1",
    "trial_num": 6,
    "trial_length": 6,
    "click_num": 2,
    "RT": 1856,
    "action": 0,
    "reward": 3.7
  },
  {
    "phase": "TASK",
    "condition": "Cond1",
    "trial_num": 6,
    "trial_length": 6,
    "click_num": 3,
    "RT": 1056,
    "action": 0,
    "reward": 3.7
  },
  {
    "phase": "TASK",
    "condition": "Cond1",
    "trial_num": 6,
    "trial_length": 6,
    "click_num": 4,
    "RT": 2536,
    "action": 0,
    "reward": 3.7
  },
  {
    "phase": "TASK",
    "condition": "Cond1",
    "trial_num": 6,
    "trial_length": 6,
    "click_num": 5,
    "RT": 1064,
    "action": 0,
    "reward": 3.7
  },
  {
    "phase": "TASK",
    "condition": "Cond1",
    "trial_num": 6,
    "trial_length": 6,
    "click_num": 6,
    "RT": 1195,
    "action": 0,
    "reward": 3.7
  },
  {
    "phase": "TASK",
    "condition": "Cond1",
    "trial_num": 7,
    "trial_length": 10,
    "click_num": 1,
    "RT": 1270,
    "action": 1,
    "reward": 3.8
  },
  {
    "phase": "TASK",
    "condition": "Cond1",
    "trial_num": 7,
    "trial_length": 10,
    "click_num": 2,
    "RT": 1401,
    "action": 0,
    "reward": 3.8
  },
  {
    "phase": "TASK",
    "condition": "Cond1",
    "trial_num": 7,
    "trial_length": 10,
    "click_num": 3,
    "RT": 824,
    "action": 0,
    "reward": 3.8
  },
  {
    "phase": "TASK",
    "condition": "Cond1",
    "trial_num": 7,
    "trial_length": 10,
    "click_num": 4,
    "RT": 1079,
    "action": 0,
    "reward": 3.8
  },
  {
    "phase": "TASK",
    "condition": "Cond1",
    "trial_num": 7,
    "trial_length": 10,
    "click_num": 5,
    "RT": 1160,
    "action": 0,
    "reward": 3.8
  },
  {
    "phase": "TASK",
    "condition": "Cond1",
    "trial_num": 7,
    "trial_length": 10,
    "click_num": 6,
    "RT": 1832,
    "action": 0,
    "reward": 3.8
  },
  {
    "phase": "TASK",
    "condition": "Cond1",
    "trial_num": 7,
    "trial_length": 10,
    "click_num": 7,
    "RT": 904,
    "action": 0,
    "reward": 3.8
  },
  {
    "phase": "TASK",
    "condition": "Cond1",
    "trial_num": 7,
    "trial_length": 10,
    "click_num": 8,
    "RT": 1504,
    "action": 0,
    "reward": 3.8
  },
  {
    "phase": "TASK",
    "condition": "Cond1",
    "trial_num": 7,
    "trial_length": 10,
    "click_num": 9,
    "RT": 1041,
    "action": 0,
    "reward": 3.8
  },
  {
    "phase": "TASK",
    "condition": "Cond1",
    "trial_num": 7,
    "trial_length": 10,
    "click_num": 10,
    "RT": 951,
    "action": 0,
    "reward": 3.8
  },
  {
    "phase": "TASK",
    "condition": "Cond1",
    "trial_num": 8,
    "trial_length": 8,
    "click_num": 1,
    "RT": 1784,
    "action": 1,
    "reward": 3.5
  },
  {
    "phase": "TASK",
    "condition": "Cond1",
    "trial_num": 8,
    "trial_length": 8,
    "click_num": 2,
    "RT": 1608,
    "action": 1,
    "reward": 2.7
  },
  {
    "phase": "TASK",
    "condition": "Cond1",
    "trial_num": 8,
    "trial_length": 8,
    "click_num": 3,
    "RT": 1288,
    "action": 1,
    "reward": 2.9
  },
  {
    "phase": "TASK",
    "condition": "Cond1",
    "trial_num": 8,
    "trial_length": 8,
    "click_num": 4,
    "RT": 1417,
    "action": 1,
    "reward": 2.5
  },
  {
    "phase": "TASK",
    "condition": "Cond1",
    "trial_num": 8,
    "trial_length": 8,
    "click_num": 5,
    "RT": 1311,
    "action": 1,
    "reward": 3.3
  },
  {
    "phase": "TASK",
    "condition": "Cond1",
    "trial_num": 8,
    "trial_length": 8,
    "click_num": 6,
    "RT": 2008,
    "action": 0,
    "reward": 3.5
  },
  {
    "phase": "TASK",
    "condition": "Cond1",
    "trial_num": 8,
    "trial_length": 8,
    "click_num": 7,
    "RT": 1376,
    "action": 0,
    "reward": 3.5
  },
  {
    "phase": "TASK",
    "condition": "Cond1",
    "trial_num": 8,
    "trial_length": 8,
    "click_num": 8,
    "RT": 864,
    "action": 0,
    "reward": 3.5
  },
  {
    "phase": "TASK",
    "condition": "Cond1",
    "trial_num": 9,
    "trial_length": 9,
    "click_num": 1,
    "RT": 1423,
    "action": 1,
    "reward": 3.7
  },
  {
    "phase": "TASK",
    "condition": "Cond1",
    "trial_num": 9,
    "trial_length": 9,
    "click_num": 2,
    "RT": 1613,
    "action": 0,
    "reward": 3.7
  },
  {
    "phase": "TASK",
    "condition": "Cond1",
    "trial_num": 9,
    "trial_length": 9,
    "click_num": 3,
    "RT": 1056,
    "action": 0,
    "reward": 3.7
  },
  {
    "phase": "TASK",
    "condition": "Cond1",
    "trial_num": 9,
    "trial_length": 9,
    "click_num": 4,
    "RT": 880,
    "action": 0,
    "reward": 3.7
  },
  {
    "phase": "TASK",
    "condition": "Cond1",
    "trial_num": 9,
    "trial_length": 9,
    "click_num": 5,
    "RT": 864,
    "action": 0,
    "reward": 3.7
  },
  {
    "phase": "TASK",
    "condition": "Cond1",
    "trial_num": 9,
    "trial_length": 9,
    "click_num": 6,
    "RT": 1056,
    "action": 0,
    "reward": 3.7
  },
  {
    "phase": "TASK",
    "condition": "Cond1",
    "trial_num": 9,
    "trial_length": 9,
    "click_num": 7,
    "RT": 1408,
    "action": 0,
    "reward": 3.7
  },
  {
    "phase": "TASK",
    "condition": "Cond1",
    "trial_num": 9,
    "trial_length": 9,
    "click_num": 8,
    "RT": 976,
    "action": 0,
    "reward": 3.7
  },
  {
    "phase": "TASK",
    "condition": "Cond1",
    "trial_num": 9,
    "trial_length": 9,
    "click_num": 9,
    "RT": 920,
    "action": 0,
    "reward": 3.7
  },
  {
    "phase": "TASK",
    "condition": "Cond1",
    "trial_num": 10,
    "trial_length": 5,
    "click_num": 1,
    "RT": 1176,
    "action": 1,
    "reward": 2.1
  },
  {
    "phase": "TASK",
    "condition": "Cond1",
    "trial_num": 10,
    "trial_length": 5,
    "click_num": 2,
    "RT": 1808,
    "action": 1,
    "reward": 3.5
  },
  {
    "phase": "TASK",
    "condition": "Cond1",
    "trial_num": 10,
    "trial_length": 5,
    "click_num": 3,
    "RT": 1777,
    "action": 1,
    "reward": 3.2
  },
  {
    "phase": "TASK",
    "condition": "Cond1",
    "trial_num": 10,
    "trial_length": 5,
    "click_num": 4,
    "RT": 1438,
    "action": 1,
    "reward": 3.2
  },
  {
    "phase": "TASK",
    "condition": "Cond1",
    "trial_num": 10,
    "trial_length": 5,
    "click_num": 5,
    "RT": 2168,
    "action": 0,
    "reward": 3.5
  },
  {
    "phase": "TASK",
    "condition": "Cond1",
    "trial_num": 11,
    "trial_length": 8,
    "click_num": 1,
    "RT": 1439,
    "action": 1,
    "reward": 2.6
  },
  {
    "phase": "TASK",
    "condition": "Cond1",
    "trial_num": 11,
    "trial_length": 8,
    "click_num": 2,
    "RT": 1568,
    "action": 1,
    "reward": 3
  },
  {
    "phase": "TASK",
    "condition": "Cond1",
    "trial_num": 11,
    "trial_length": 8,
    "click_num": 3,
    "RT": 1479,
    "action": 1,
    "reward": 3.1
  },
  {
    "phase": "TASK",
    "condition": "Cond1",
    "trial_num": 11,
    "trial_length": 8,
    "click_num": 4,
    "RT": 1266,
    "action": 1,
    "reward": 2.3
  },
  {
    "phase": "TASK",
    "condition": "Cond1",
    "trial_num": 11,
    "trial_length": 8,
    "click_num": 5,
    "RT": 1535,
    "action": 1,
    "reward": 2.6
  },
  {
    "phase": "TASK",
    "condition": "Cond1",
    "trial_num": 11,
    "trial_length": 8,
    "click_num": 6,
    "RT": 1687,
    "action": 0,
    "reward": 3.1
  },
  {
    "phase": "TASK",
    "condition": "Cond1",
    "trial_num": 11,
    "trial_length": 8,
    "click_num": 7,
    "RT": 857,
    "action": 1,
    "reward": 3.6
  },
  {
    "phase": "TASK",
    "condition": "Cond1",
    "trial_num": 11,
    "trial_length": 8,
    "click_num": 8,
    "RT": 1623,
    "action": 0,
    "reward": 3.6
  },
  {
    "phase": "TASK",
    "condition": "Cond1",
    "trial_num": 12,
    "trial_length": 8,
    "click_num": 1,
    "RT": 1360,
    "action": 1,
    "reward": 2.6
  },
  {
    "phase": "TASK",
    "condition": "Cond1",
    "trial_num": 12,
    "trial_length": 8,
    "click_num": 2,
    "RT": 1574,
    "action": 1,
    "reward": 3.3
  },
  {
    "phase": "TASK",
    "condition": "Cond1",
    "trial_num": 12,
    "trial_length": 8,
    "click_num": 3,
    "RT": 1345,
    "action": 1,
    "reward": 2.8
  },
  {
    "phase": "TASK",
    "condition": "Cond1",
    "trial_num": 12,
    "trial_length": 8,
    "click_num": 4,
    "RT": 1326,
    "action": 1,
    "reward": 2.9
  },
  {
    "phase": "TASK",
    "condition": "Cond1",
    "trial_num": 12,
    "trial_length": 8,
    "click_num": 5,
    "RT": 1274,
    "action": 1,
    "reward": 2.8
  },
  {
    "phase": "TASK",
    "condition": "Cond1",
    "trial_num": 12,
    "trial_length": 8,
    "click_num": 6,
    "RT": 1544,
    "action": 1,
    "reward": 2.5
  },
  {
    "phase": "TASK",
    "condition": "Cond1",
    "trial_num": 12,
    "trial_length": 8,
    "click_num": 7,
    "RT": 1467,
    "action": 0,
    "reward": 3.3
  },
  {
    "phase": "TASK",
    "condition": "Cond1",
    "trial_num": 12,
    "trial_length": 8,
    "click_num": 8,
    "RT": 877,
    "action": 1,
    "reward": 3.5
  },
  {
    "phase": "TASK",
    "condition": "Cond1",
    "trial_num": 13,
    "trial_length": 8,
    "click_num": 1,
    "RT": 1358,
    "action": 1,
    "reward": 2.2
  },
  {
    "phase": "TASK",
    "condition": "Cond1",
    "trial_num": 13,
    "trial_length": 8,
    "click_num": 2,
    "RT": 1536,
    "action": 1,
    "reward": 2.2
  },
  {
    "phase": "TASK",
    "condition": "Cond1",
    "trial_num": 13,
    "trial_length": 8,
    "click_num": 3,
    "RT": 1963,
    "action": 1,
    "reward": 2.7
  },
  {
    "phase": "TASK",
    "condition": "Cond1",
    "trial_num": 13,
    "trial_length": 8,
    "click_num": 4,
    "RT": 1228,
    "action": 1,
    "reward": 4.2
  },
  {
    "phase": "TASK",
    "condition": "Cond1",
    "trial_num": 13,
    "trial_length": 8,
    "click_num": 5,
    "RT": 2169,
    "action": 0,
    "reward": 4.2
  },
  {
    "phase": "TASK",
    "condition": "Cond1",
    "trial_num": 13,
    "trial_length": 8,
    "click_num": 6,
    "RT": 1007,
    "action": 0,
    "reward": 4.2
  },
  {
    "phase": "TASK",
    "condition": "Cond1",
    "trial_num": 13,
    "trial_length": 8,
    "click_num": 7,
    "RT": 971,
    "action": 0,
    "reward": 4.2
  },
  {
    "phase": "TASK",
    "condition": "Cond1",
    "trial_num": 13,
    "trial_length": 8,
    "click_num": 8,
    "RT": 1086,
    "action": 0,
    "reward": 4.2
  },
  {
    "phase": "TASK",
    "condition": "Cond1",
    "trial_num": 14,
    "trial_length": 9,
    "click_num": 1,
    "RT": 1325,
    "action": 1,
    "reward": 2.2
  },
  {
    "phase": "TASK",
    "condition": "Cond1",
    "trial_num": 14,
    "trial_length": 9,
    "click_num": 2,
    "RT": 1713,
    "action": 1,
    "reward": 4
  },
  {
    "phase": "TASK",
    "condition": "Cond1",
    "trial_num": 14,
    "trial_length": 9,
    "click_num": 3,
    "RT": 1769,
    "action": 0,
    "reward": 4
  },
  {
    "phase": "TASK",
    "condition": "Cond1",
    "trial_num": 14,
    "trial_length": 9,
    "click_num": 4,
    "RT": 991,
    "action": 0,
    "reward": 4
  },
  {
    "phase": "TASK",
    "condition": "Cond1",
    "trial_num": 14,
    "trial_length": 9,
    "click_num": 5,
    "RT": 985,
    "action": 0,
    "reward": 4
  },
  {
    "phase": "TASK",
    "condition": "Cond1",
    "trial_num": 14,
    "trial_length": 9,
    "click_num": 6,
    "RT": 975,
    "action": 0,
    "reward": 4
  },
  {
    "phase": "TASK",
    "condition": "Cond1",
    "trial_num": 14,
    "trial_length": 9,
    "click_num": 7,
    "RT": 929,
    "action": 0,
    "reward": 4
  },
  {
    "phase": "TASK",
    "condition": "Cond1",
    "trial_num": 14,
    "trial_length": 9,
    "click_num": 8,
    "RT": 1111,
    "action": 0,
    "reward": 4
  },
  {
    "phase": "TASK",
    "condition": "Cond1",
    "trial_num": 14,
    "trial_length": 9,
    "click_num": 9,
    "RT": 928,
    "action": 0,
    "reward": 4
  },
  {
    "phase": "TASK",
    "condition": "Cond1",
    "trial_num": 15,
    "trial_length": 6,
    "click_num": 1,
    "RT": 5294,
    "action": 1,
    "reward": 1.4
  },
  {
    "phase": "TASK",
    "condition": "Cond1",
    "trial_num": 15,
    "trial_length": 6,
    "click_num": 2,
    "RT": 2367,
    "action": 1,
    "reward": 3.7
  },
  {
    "phase": "TASK",
    "condition": "Cond1",
    "trial_num": 15,
    "trial_length": 6,
    "click_num": 3,
    "RT": 2784,
    "action": 1,
    "reward": 1.8
  },
  {
    "phase": "TASK",
    "condition": "Cond1",
    "trial_num": 15,
    "trial_length": 6,
    "click_num": 4,
    "RT": 1246,
    "action": 1,
    "reward": 2.3
  },
  {
    "phase": "TASK",
    "condition": "Cond1",
    "trial_num": 15,
    "trial_length": 6,
    "click_num": 5,
    "RT": 1883,
    "action": 0,
    "reward": 3.7
  },
  {
    "phase": "TASK",
    "condition": "Cond1",
    "trial_num": 15,
    "trial_length": 6,
    "click_num": 6,
    "RT": 959,
    "action": 0,
    "reward": 3.7
  },
  {
    "phase": "TASK",
    "condition": "Cond1",
    "trial_num": 16,
    "trial_length": 7,
    "click_num": 1,
    "RT": 1334,
    "action": 1,
    "reward": 2.9
  },
  {
    "phase": "TASK",
    "condition": "Cond1",
    "trial_num": 16,
    "trial_length": 7,
    "click_num": 2,
    "RT": 1328,
    "action": 1,
    "reward": 3.4
  },
  {
    "phase": "TASK",
    "condition": "Cond1",
    "trial_num": 16,
    "trial_length": 7,
    "click_num": 3,
    "RT": 1435,
    "action": 1,
    "reward": 3.6
  },
  {
    "phase": "TASK",
    "condition": "Cond1",
    "trial_num": 16,
    "trial_length": 7,
    "click_num": 4,
    "RT": 1652,
    "action": 1,
    "reward": 3.4
  },
  {
    "phase": "TASK",
    "condition": "Cond1",
    "trial_num": 16,
    "trial_length": 7,
    "click_num": 5,
    "RT": 1602,
    "action": 0,
    "reward": 3.6
  },
  {
    "phase": "TASK",
    "condition": "Cond1",
    "trial_num": 16,
    "trial_length": 7,
    "click_num": 6,
    "RT": 951,
    "action": 0,
    "reward": 3.6
  },
  {
    "phase": "TASK",
    "condition": "Cond1",
    "trial_num": 16,
    "trial_length": 7,
    "click_num": 7,
    "RT": 945,
    "action": 0,
    "reward": 3.6
  },
  {
    "phase": "TASK",
    "condition": "Cond1",
    "trial_num": 17,
    "trial_length": 6,
    "click_num": 1,
    "RT": 1134,
    "action": 1,
    "reward": 2.8
  },
  {
    "phase": "TASK",
    "condition": "Cond1",
    "trial_num": 17,
    "trial_length": 6,
    "click_num": 2,
    "RT": 1471,
    "action": 1,
    "reward": 3.7
  },
  {
    "phase": "TASK",
    "condition": "Cond1",
    "trial_num": 17,
    "trial_length": 6,
    "click_num": 3,
    "RT": 2560,
    "action": 1,
    "reward": 3.4
  },
  {
    "phase": "TASK",
    "condition": "Cond1",
    "trial_num": 17,
    "trial_length": 6,
    "click_num": 4,
    "RT": 1559,
    "action": 0,
    "reward": 3.7
  },
  {
    "phase": "TASK",
    "condition": "Cond1",
    "trial_num": 17,
    "trial_length": 6,
    "click_num": 5,
    "RT": 905,
    "action": 0,
    "reward": 3.7
  },
  {
    "phase": "TASK",
    "condition": "Cond1",
    "trial_num": 17,
    "trial_length": 6,
    "click_num": 6,
    "RT": 1328,
    "action": 0,
    "reward": 3.7
  },
  {
    "phase": "TASK",
    "condition": "Cond1",
    "trial_num": 18,
    "trial_length": 10,
    "click_num": 1,
    "RT": 1416,
    "action": 1,
    "reward": 2.6
  },
  {
    "phase": "TASK",
    "condition": "Cond1",
    "trial_num": 18,
    "trial_length": 10,
    "click_num": 2,
    "RT": 1503,
    "action": 1,
    "reward": 4
  },
  {
    "phase": "TASK",
    "condition": "Cond1",
    "trial_num": 18,
    "trial_length": 10,
    "click_num": 3,
    "RT": 1496,
    "action": 0,
    "reward": 4
  },
  {
    "phase": "TASK",
    "condition": "Cond1",
    "trial_num": 18,
    "trial_length": 10,
    "click_num": 4,
    "RT": 879,
    "action": 0,
    "reward": 4
  },
  {
    "phase": "TASK",
    "condition": "Cond1",
    "trial_num": 18,
    "trial_length": 10,
    "click_num": 5,
    "RT": 852,
    "action": 0,
    "reward": 4
  },
  {
    "phase": "TASK",
    "condition": "Cond1",
    "trial_num": 18,
    "trial_length": 10,
    "click_num": 6,
    "RT": 942,
    "action": 0,
    "reward": 4
  },
  {
    "phase": "TASK",
    "condition": "Cond1",
    "trial_num": 18,
    "trial_length": 10,
    "click_num": 7,
    "RT": 943,
    "action": 0,
    "reward": 4
  },
  {
    "phase": "TASK",
    "condition": "Cond1",
    "trial_num": 18,
    "trial_length": 10,
    "click_num": 8,
    "RT": 912,
    "action": 0,
    "reward": 4
  },
  {
    "phase": "TASK",
    "condition": "Cond1",
    "trial_num": 18,
    "trial_length": 10,
    "click_num": 9,
    "RT": 927,
    "action": 0,
    "reward": 4
  },
  {
    "phase": "TASK",
    "condition": "Cond1",
    "trial_num": 18,
    "trial_length": 10,
    "click_num": 10,
    "RT": 904,
    "action": 0,
    "reward": 4
  },
  {
    "phase": "TASK",
    "condition": "Cond1",
    "trial_num": 19,
    "trial_length": 5,
    "click_num": 1,
    "RT": 1414,
    "action": 1,
    "reward": 2.9
  },
  {
    "phase": "TASK",
    "condition": "Cond1",
    "trial_num": 19,
    "trial_length": 5,
    "click_num": 2,
    "RT": 1552,
    "action": 1,
    "reward": 3.3
  },
  {
    "phase": "TASK",
    "condition": "Cond1",
    "trial_num": 19,
    "trial_length": 5,
    "click_num": 3,
    "RT": 1144,
    "action": 1,
    "reward": 2.7
  },
  {
    "phase": "TASK",
    "condition": "Cond1",
    "trial_num": 19,
    "trial_length": 5,
    "click_num": 4,
    "RT": 1160,
    "action": 1,
    "reward": 2.4
  },
  {
    "phase": "TASK",
    "condition": "Cond1",
    "trial_num": 19,
    "trial_length": 5,
    "click_num": 5,
    "RT": 1160,
    "action": 1,
    "reward": 2.8
  },
  {
    "phase": "TASK",
    "condition": "Cond1",
    "trial_num": 20,
    "trial_length": 7,
    "click_num": 1,
    "RT": 1233,
    "action": 1,
    "reward": 3.2
  },
  {
    "phase": "TASK",
    "condition": "Cond1",
    "trial_num": 20,
    "trial_length": 7,
    "click_num": 2,
    "RT": 1575,
    "action": 1,
    "reward": 3.7
  },
  {
    "phase": "TASK",
    "condition": "Cond1",
    "trial_num": 20,
    "trial_length": 7,
    "click_num": 3,
    "RT": 1425,
    "action": 0,
    "reward": 3.7
  },
  {
    "phase": "TASK",
    "condition": "Cond1",
    "trial_num": 20,
    "trial_length": 7,
    "click_num": 4,
    "RT": 1216,
    "action": 0,
    "reward": 3.7
  },
  {
    "phase": "TASK",
    "condition": "Cond1",
    "trial_num": 20,
    "trial_length": 7,
    "click_num": 5,
    "RT": 1079,
    "action": 0,
    "reward": 3.7
  },
  {
    "phase": "TASK",
    "condition": "Cond1",
    "trial_num": 20,
    "trial_length": 7,
    "click_num": 6,
    "RT": 1224,
    "action": 0,
    "reward": 3.7
  },
  {
    "phase": "TASK",
    "condition": "Cond1",
    "trial_num": 20,
    "trial_length": 7,
    "click_num": 7,
    "RT": 795,
    "action": 0,
    "reward": 3.7
  },
  {
    "phase": "TASK",
    "condition": "Cond1",
    "trial_num": 21,
    "trial_length": 8,
    "click_num": 1,
    "RT": 1246,
    "action": 1,
    "reward": 2.6
  },
  {
    "phase": "TASK",
    "condition": "Cond1",
    "trial_num": 21,
    "trial_length": 8,
    "click_num": 2,
    "RT": 1217,
    "action": 1,
    "reward": 2.3
  },
  {
    "phase": "TASK",
    "condition": "Cond1",
    "trial_num": 21,
    "trial_length": 8,
    "click_num": 3,
    "RT": 1407,
    "action": 1,
    "reward": 3.2
  },
  {
    "phase": "TASK",
    "condition": "Cond1",
    "trial_num": 21,
    "trial_length": 8,
    "click_num": 4,
    "RT": 1340,
    "action": 1,
    "reward": 2.4
  },
  {
    "phase": "TASK",
    "condition": "Cond1",
    "trial_num": 21,
    "trial_length": 8,
    "click_num": 5,
    "RT": 1109,
    "action": 1,
    "reward": 2.2
  },
  {
    "phase": "TASK",
    "condition": "Cond1",
    "trial_num": 21,
    "trial_length": 8,
    "click_num": 6,
    "RT": 1543,
    "action": 0,
    "reward": 3.2
  },
  {
    "phase": "TASK",
    "condition": "Cond1",
    "trial_num": 21,
    "trial_length": 8,
    "click_num": 7,
    "RT": 968,
    "action": 1,
    "reward": 2.8
  },
  {
    "phase": "TASK",
    "condition": "Cond1",
    "trial_num": 21,
    "trial_length": 8,
    "click_num": 8,
    "RT": 1681,
    "action": 0,
    "reward": 3.2
  },
  {
    "phase": "TASK",
    "condition": "Cond1",
    "trial_num": 22,
    "trial_length": 5,
    "click_num": 1,
    "RT": 1142,
    "action": 1,
    "reward": 3.6
  },
  {
    "phase": "TASK",
    "condition": "Cond1",
    "trial_num": 22,
    "trial_length": 5,
    "click_num": 2,
    "RT": 1863,
    "action": 1,
    "reward": 3.3
  },
  {
    "phase": "TASK",
    "condition": "Cond1",
    "trial_num": 22,
    "trial_length": 5,
    "click_num": 3,
    "RT": 1322,
    "action": 0,
    "reward": 3.6
  },
  {
    "phase": "TASK",
    "condition": "Cond1",
    "trial_num": 22,
    "trial_length": 5,
    "click_num": 4,
    "RT": 1031,
    "action": 0,
    "reward": 3.6
  },
  {
    "phase": "TASK",
    "condition": "Cond1",
    "trial_num": 22,
    "trial_length": 5,
    "click_num": 5,
    "RT": 1000,
    "action": 0,
    "reward": 3.6
  },
  {
    "phase": "TASK",
    "condition": "Cond1",
    "trial_num": 23,
    "trial_length": 10,
    "click_num": 1,
    "RT": 1289,
    "action": 1,
    "reward": 3.3
  },
  {
    "phase": "TASK",
    "condition": "Cond1",
    "trial_num": 23,
    "trial_length": 10,
    "click_num": 2,
    "RT": 1349,
    "action": 1,
    "reward": 3.6
  },
  {
    "phase": "TASK",
    "condition": "Cond1",
    "trial_num": 23,
    "trial_length": 10,
    "click_num": 3,
    "RT": 3978,
    "action": 1,
    "reward": 2.6
  },
  {
    "phase": "TASK",
    "condition": "Cond1",
    "trial_num": 23,
    "trial_length": 10,
    "click_num": 4,
    "RT": 1110,
    "action": 1,
    "reward": 2.8
  },
  {
    "phase": "TASK",
    "condition": "Cond1",
    "trial_num": 23,
    "trial_length": 10,
    "click_num": 5,
    "RT": 1111,
    "action": 0,
    "reward": 3.6
  },
  {
    "phase": "TASK",
    "condition": "Cond1",
    "trial_num": 23,
    "trial_length": 10,
    "click_num": 6,
    "RT": 849,
    "action": 0,
    "reward": 3.6
  },
  {
    "phase": "TASK",
    "condition": "Cond1",
    "trial_num": 23,
    "trial_length": 10,
    "click_num": 7,
    "RT": 920,
    "action": 0,
    "reward": 3.6
  },
  {
    "phase": "TASK",
    "condition": "Cond1",
    "trial_num": 23,
    "trial_length": 10,
    "click_num": 8,
    "RT": 864,
    "action": 0,
    "reward": 3.6
  },
  {
    "phase": "TASK",
    "condition": "Cond1",
    "trial_num": 23,
    "trial_length": 10,
    "click_num": 9,
    "RT": 911,
    "action": 0,
    "reward": 3.6
  },
  {
    "phase": "TASK",
    "condition": "Cond1",
    "trial_num": 23,
    "trial_length": 10,
    "click_num": 10,
    "RT": 905,
    "action": 0,
    "reward": 3.6
  },
  {
    "phase": "TASK",
    "condition": "Cond1",
    "trial_num": 24,
    "trial_length": 6,
    "click_num": 1,
    "RT": 1037,
    "action": 1,
    "reward": 2.8
  },
  {
    "phase": "TASK",
    "condition": "Cond1",
    "trial_num": 24,
    "trial_length": 6,
    "click_num": 2,
    "RT": 1304,
    "action": 1,
    "reward": 3.1
  },
  {
    "phase": "TASK",
    "condition": "Cond1",
    "trial_num": 24,
    "trial_length": 6,
    "click_num": 3,
    "RT": 1049,
    "action": 1,
    "reward": 3
  },
  {
    "phase": "TASK",
    "condition": "Cond1",
    "trial_num": 24,
    "trial_length": 6,
    "click_num": 4,
    "RT": 1078,
    "action": 1,
    "reward": 3.4
  },
  {
    "phase": "TASK",
    "condition": "Cond1",
    "trial_num": 24,
    "trial_length": 6,
    "click_num": 5,
    "RT": 2329,
    "action": 1,
    "reward": 2.9
  },
  {
    "phase": "TASK",
    "condition": "Cond1",
    "trial_num": 24,
    "trial_length": 6,
    "click_num": 6,
    "RT": 1209,
    "action": 0,
    "reward": 3.4
  },
  {
    "phase": "TASK",
    "condition": "Cond1",
    "trial_num": 25,
    "trial_length": 10,
    "click_num": 1,
    "RT": 1231,
    "action": 1,
    "reward": 2.6
  },
  {
    "phase": "TASK",
    "condition": "Cond1",
    "trial_num": 25,
    "trial_length": 10,
    "click_num": 2,
    "RT": 1352,
    "action": 1,
    "reward": 2.2
  },
  {
    "phase": "TASK",
    "condition": "Cond1",
    "trial_num": 25,
    "trial_length": 10,
    "click_num": 3,
    "RT": 1312,
    "action": 1,
    "reward": 3.6
  },
  {
    "phase": "TASK",
    "condition": "Cond1",
    "trial_num": 25,
    "trial_length": 10,
    "click_num": 4,
    "RT": 1464,
    "action": 0,
    "reward": 3.6
  },
  {
    "phase": "TASK",
    "condition": "Cond1",
    "trial_num": 25,
    "trial_length": 10,
    "click_num": 5,
    "RT": 896,
    "action": 0,
    "reward": 3.6
  },
  {
    "phase": "TASK",
    "condition": "Cond1",
    "trial_num": 25,
    "trial_length": 10,
    "click_num": 6,
    "RT": 864,
    "action": 0,
    "reward": 3.6
  },
  {
    "phase": "TASK",
    "condition": "Cond1",
    "trial_num": 25,
    "trial_length": 10,
    "click_num": 7,
    "RT": 936,
    "action": 0,
    "reward": 3.6
  },
  {
    "phase": "TASK",
    "condition": "Cond1",
    "trial_num": 25,
    "trial_length": 10,
    "click_num": 8,
    "RT": 895,
    "action": 0,
    "reward": 3.6
  },
  {
    "phase": "TASK",
    "condition": "Cond1",
    "trial_num": 25,
    "trial_length": 10,
    "click_num": 9,
    "RT": 849,
    "action": 0,
    "reward": 3.6
  },
  {
    "phase": "TASK",
    "condition": "Cond1",
    "trial_num": 25,
    "trial_length": 10,
    "click_num": 10,
    "RT": 824,
    "action": 0,
    "reward": 3.6
  },
  {
    "phase": "TASK",
    "condition": "Cond1",
    "trial_num": 26,
    "trial_length": 7,
    "click_num": 1,
    "RT": 1168,
    "action": 1,
    "reward": 3
  },
  {
    "phase": "TASK",
    "condition": "Cond1",
    "trial_num": 26,
    "trial_length": 7,
    "click_num": 2,
    "RT": 1759,
    "action": 1,
    "reward": 2.9
  },
  {
    "phase": "TASK",
    "condition": "Cond1",
    "trial_num": 26,
    "trial_length": 7,
    "click_num": 3,
    "RT": 1284,
    "action": 1,
    "reward": 2.8
  },
  {
    "phase": "TASK",
    "condition": "Cond1",
    "trial_num": 26,
    "trial_length": 7,
    "click_num": 4,
    "RT": 1469,
    "action": 1,
    "reward": 3.5
  },
  {
    "phase": "TASK",
    "condition": "Cond1",
    "trial_num": 26,
    "trial_length": 7,
    "click_num": 5,
    "RT": 1368,
    "action": 0,
    "reward": 3.5
  },
  {
    "phase": "TASK",
    "condition": "Cond1",
    "trial_num": 26,
    "trial_length": 7,
    "click_num": 6,
    "RT": 752,
    "action": 0,
    "reward": 3.5
  },
  {
    "phase": "TASK",
    "condition": "Cond1",
    "trial_num": 26,
    "trial_length": 7,
    "click_num": 7,
    "RT": 1011,
    "action": 0,
    "reward": 3.5
  },
  {
    "phase": "TASK",
    "condition": "Cond1",
    "trial_num": 27,
    "trial_length": 5,
    "click_num": 1,
    "RT": 1102,
    "action": 1,
    "reward": 2.2
  },
  {
    "phase": "TASK",
    "condition": "Cond1",
    "trial_num": 27,
    "trial_length": 5,
    "click_num": 2,
    "RT": 1496,
    "action": 1,
    "reward": 2.3
  },
  {
    "phase": "TASK",
    "condition": "Cond1",
    "trial_num": 27,
    "trial_length": 5,
    "click_num": 3,
    "RT": 1104,
    "action": 1,
    "reward": 2
  },
  {
    "phase": "TASK",
    "condition": "Cond1",
    "trial_num": 27,
    "trial_length": 5,
    "click_num": 4,
    "RT": 1192,
    "action": 1,
    "reward": 3.3
  },
  {
    "phase": "TASK",
    "condition": "Cond1",
    "trial_num": 27,
    "trial_length": 5,
    "click_num": 5,
    "RT": 1496,
    "action": 1,
    "reward": 4.3
  },
  {
    "phase": "TASK",
    "condition": "Cond1",
    "trial_num": 28,
    "trial_length": 5,
    "click_num": 1,
    "RT": 1263,
    "action": 1,
    "reward": 3.8
  },
  {
    "phase": "TASK",
    "condition": "Cond1",
    "trial_num": 28,
    "trial_length": 5,
    "click_num": 2,
    "RT": 1529,
    "action": 0,
    "reward": 3.8
  },
  {
    "phase": "TASK",
    "condition": "Cond1",
    "trial_num": 28,
    "trial_length": 5,
    "click_num": 3,
    "RT": 727,
    "action": 0,
    "reward": 3.8
  },
  {
    "phase": "TASK",
    "condition": "Cond1",
    "trial_num": 28,
    "trial_length": 5,
    "click_num": 4,
    "RT": 783,
    "action": 0,
    "reward": 3.8
  },
  {
    "phase": "TASK",
    "condition": "Cond1",
    "trial_num": 28,
    "trial_length": 5,
    "click_num": 5,
    "RT": 776,
    "action": 0,
    "reward": 3.8
  },
  {
    "phase": "TASK",
    "condition": "Cond1",
    "trial_num": 29,
    "trial_length": 6,
    "click_num": 1,
    "RT": 1198,
    "action": 1,
    "reward": 2.7
  },
  {
    "phase": "TASK",
    "condition": "Cond1",
    "trial_num": 29,
    "trial_length": 6,
    "click_num": 2,
    "RT": 1872,
    "action": 1,
    "reward": 2.9
  },
  {
    "phase": "TASK",
    "condition": "Cond1",
    "trial_num": 29,
    "trial_length": 6,
    "click_num": 3,
    "RT": 1137,
    "action": 1,
    "reward": 1.9
  },
  {
    "phase": "TASK",
    "condition": "Cond1",
    "trial_num": 29,
    "trial_length": 6,
    "click_num": 4,
    "RT": 1151,
    "action": 1,
    "reward": 3.3
  },
  {
    "phase": "TASK",
    "condition": "Cond1",
    "trial_num": 29,
    "trial_length": 6,
    "click_num": 5,
    "RT": 1224,
    "action": 1,
    "reward": 2.9
  },
  {
    "phase": "TASK",
    "condition": "Cond1",
    "trial_num": 29,
    "trial_length": 6,
    "click_num": 6,
    "RT": 2218,
    "action": 1,
    "reward": 2.7
  },
  {
    "phase": "TASK",
    "condition": "Cond1",
    "trial_num": 30,
    "trial_length": 6,
    "click_num": 1,
    "RT": 1023,
    "action": 1,
    "reward": 3.3
  },
  {
    "phase": "TASK",
    "condition": "Cond1",
    "trial_num": 30,
    "trial_length": 6,
    "click_num": 2,
    "RT": 1009,
    "action": 1,
    "reward": 3.4
  },
  {
    "phase": "TASK",
    "condition": "Cond1",
    "trial_num": 30,
    "trial_length": 6,
    "click_num": 3,
    "RT": 1078,
    "action": 1,
    "reward": 3.3
  },
  {
    "phase": "TASK",
    "condition": "Cond1",
    "trial_num": 30,
    "trial_length": 6,
    "click_num": 4,
    "RT": 1217,
    "action": 1,
    "reward": 3.1
  },
  {
    "phase": "TASK",
    "condition": "Cond1",
    "trial_num": 30,
    "trial_length": 6,
    "click_num": 5,
    "RT": 1269,
    "action": 1,
    "reward": 3.5
  },
  {
    "phase": "TASK",
    "condition": "Cond1",
    "trial_num": 30,
    "trial_length": 6,
    "click_num": 6,
    "RT": 1315,
    "action": 1,
    "reward": 3
  },
  {
    "phase": "TASK",
    "condition": "Cond1",
    "trial_num": 31,
    "trial_length": 5,
    "click_num": 1,
    "RT": 1062,
    "action": 1,
    "reward": 2.6
  },
  {
    "phase": "TASK",
    "condition": "Cond1",
    "trial_num": 31,
    "trial_length": 5,
    "click_num": 2,
    "RT": 1031,
    "action": 1,
    "reward": 2.2
  },
  {
    "phase": "TASK",
    "condition": "Cond1",
    "trial_num": 31,
    "trial_length": 5,
    "click_num": 3,
    "RT": 1993,
    "action": 1,
    "reward": 1.5
  },
  {
    "phase": "TASK",
    "condition": "Cond1",
    "trial_num": 31,
    "trial_length": 5,
    "click_num": 4,
    "RT": 1687,
    "action": 1,
    "reward": 2.1
  },
  {
    "phase": "TASK",
    "condition": "Cond1",
    "trial_num": 31,
    "trial_length": 5,
    "click_num": 5,
    "RT": 1392,
    "action": 1,
    "reward": 2.5
  },
  {
    "phase": "TASK",
    "condition": "Cond1",
    "trial_num": 32,
    "trial_length": 10,
    "click_num": 1,
    "RT": 1121,
    "action": 1,
    "reward": 2.8
  },
  {
    "phase": "TASK",
    "condition": "Cond1",
    "trial_num": 32,
    "trial_length": 10,
    "click_num": 2,
    "RT": 1271,
    "action": 1,
    "reward": 3
  },
  {
    "phase": "TASK",
    "condition": "Cond1",
    "trial_num": 32,
    "trial_length": 10,
    "click_num": 3,
    "RT": 1199,
    "action": 1,
    "reward": 2.2
  },
  {
    "phase": "TASK",
    "condition": "Cond1",
    "trial_num": 32,
    "trial_length": 10,
    "click_num": 4,
    "RT": 1265,
    "action": 1,
    "reward": 3.3
  },
  {
    "phase": "TASK",
    "condition": "Cond1",
    "trial_num": 32,
    "trial_length": 10,
    "click_num": 5,
    "RT": 1833,
    "action": 1,
    "reward": 3.1
  },
  {
    "phase": "TASK",
    "condition": "Cond1",
    "trial_num": 32,
    "trial_length": 10,
    "click_num": 6,
    "RT": 1759,
    "action": 1,
    "reward": 2
  },
  {
    "phase": "TASK",
    "condition": "Cond1",
    "trial_num": 32,
    "trial_length": 10,
    "click_num": 7,
    "RT": 1184,
    "action": 1,
    "reward": 3
  },
  {
    "phase": "TASK",
    "condition": "Cond1",
    "trial_num": 32,
    "trial_length": 10,
    "click_num": 8,
    "RT": 1976,
    "action": 1,
    "reward": 2.7
  },
  {
    "phase": "TASK",
    "condition": "Cond1",
    "trial_num": 32,
    "trial_length": 10,
    "click_num": 9,
    "RT": 1344,
    "action": 1,
    "reward": 2.7
  },
  {
    "phase": "TASK",
    "condition": "Cond1",
    "trial_num": 32,
    "trial_length": 10,
    "click_num": 10,
    "RT": 1520,
    "action": 1,
    "reward": 2.5
  },
  {
    "phase": "TASK",
    "condition": "Cond1",
    "trial_num": 33,
    "trial_length": 6,
    "click_num": 1,
    "RT": 1213,
    "action": 1,
    "reward": 3.6
  },
  {
    "phase": "TASK",
    "condition": "Cond1",
    "trial_num": 33,
    "trial_length": 6,
    "click_num": 2,
    "RT": 1808,
    "action": 1,
    "reward": 2.1
  },
  {
    "phase": "TASK",
    "condition": "Cond1",
    "trial_num": 33,
    "trial_length": 6,
    "click_num": 3,
    "RT": 1576,
    "action": 0,
    "reward": 3.6
  },
  {
    "phase": "TASK",
    "condition": "Cond1",
    "trial_num": 33,
    "trial_length": 6,
    "click_num": 4,
    "RT": 920,
    "action": 0,
    "reward": 3.6
  },
  {
    "phase": "TASK",
    "condition": "Cond1",
    "trial_num": 33,
    "trial_length": 6,
    "click_num": 5,
    "RT": 1552,
    "action": 0,
    "reward": 3.6
  },
  {
    "phase": "TASK",
    "condition": "Cond1",
    "trial_num": 33,
    "trial_length": 6,
    "click_num": 6,
    "RT": 896,
    "action": 0,
    "reward": 3.6
  },
  {
    "phase": "TASK",
    "condition": "Cond1",
    "trial_num": 34,
    "trial_length": 5,
    "click_num": 1,
    "RT": 1207,
    "action": 1,
    "reward": 2.4
  },
  {
    "phase": "TASK",
    "condition": "Cond1",
    "trial_num": 34,
    "trial_length": 5,
    "click_num": 2,
    "RT": 1241,
    "action": 1,
    "reward": 2.7
  },
  {
    "phase": "TASK",
    "condition": "Cond1",
    "trial_num": 34,
    "trial_length": 5,
    "click_num": 3,
    "RT": 1238,
    "action": 1,
    "reward": 3.3
  },
  {
    "phase": "TASK",
    "condition": "Cond1",
    "trial_num": 34,
    "trial_length": 5,
    "click_num": 4,
    "RT": 1377,
    "action": 1,
    "reward": 3.4
  },
  {
    "phase": "TASK",
    "condition": "Cond1",
    "trial_num": 34,
    "trial_length": 5,
    "click_num": 5,
    "RT": 1688,
    "action": 1,
    "reward": 2.7
  },
  {
    "phase": "TASK",
    "condition": "Cond1",
    "trial_num": 35,
    "trial_length": 10,
    "click_num": 1,
    "RT": 1070,
    "action": 1,
    "reward": 2.8
  },
  {
    "phase": "TASK",
    "condition": "Cond1",
    "trial_num": 35,
    "trial_length": 10,
    "click_num": 2,
    "RT": 1176,
    "action": 1,
    "reward": 2.5
  },
  {
    "phase": "TASK",
    "condition": "Cond1",
    "trial_num": 35,
    "trial_length": 10,
    "click_num": 3,
    "RT": 1969,
    "action": 1,
    "reward": 3.5
  },
  {
    "phase": "TASK",
    "condition": "Cond1",
    "trial_num": 35,
    "trial_length": 10,
    "click_num": 4,
    "RT": 2032,
    "action": 0,
    "reward": 3.5
  },
  {
    "phase": "TASK",
    "condition": "Cond1",
    "trial_num": 35,
    "trial_length": 10,
    "click_num": 5,
    "RT": 831,
    "action": 0,
    "reward": 3.5
  },
  {
    "phase": "TASK",
    "condition": "Cond1",
    "trial_num": 35,
    "trial_length": 10,
    "click_num": 6,
    "RT": 859,
    "action": 0,
    "reward": 3.5
  },
  {
    "phase": "TASK",
    "condition": "Cond1",
    "trial_num": 35,
    "trial_length": 10,
    "click_num": 7,
    "RT": 790,
    "action": 0,
    "reward": 3.5
  },
  {
    "phase": "TASK",
    "condition": "Cond1",
    "trial_num": 35,
    "trial_length": 10,
    "click_num": 8,
    "RT": 784,
    "action": 0,
    "reward": 3.5
  },
  {
    "phase": "TASK",
    "condition": "Cond1",
    "trial_num": 35,
    "trial_length": 10,
    "click_num": 9,
    "RT": 816,
    "action": 0,
    "reward": 3.5
  },
  {
    "phase": "TASK",
    "condition": "Cond1",
    "trial_num": 35,
    "trial_length": 10,
    "click_num": 10,
    "RT": 776,
    "action": 0,
    "reward": 3.5
  },
  {
    "phase": "TASK",
    "condition": "Cond1",
    "trial_num": 36,
    "trial_length": 7,
    "click_num": 1,
    "RT": 1295,
    "action": 1,
    "reward": 3
  },
  {
    "phase": "TASK",
    "condition": "Cond1",
    "trial_num": 36,
    "trial_length": 7,
    "click_num": 2,
    "RT": 1311,
    "action": 1,
    "reward": 1.9
  },
  {
    "phase": "TASK",
    "condition": "Cond1",
    "trial_num": 36,
    "trial_length": 7,
    "click_num": 3,
    "RT": 1378,
    "action": 1,
    "reward": 2.7
  },
  {
    "phase": "TASK",
    "condition": "Cond1",
    "trial_num": 36,
    "trial_length": 7,
    "click_num": 4,
    "RT": 1383,
    "action": 1,
    "reward": 3.2
  },
  {
    "phase": "TASK",
    "condition": "Cond1",
    "trial_num": 36,
    "trial_length": 7,
    "click_num": 5,
    "RT": 2081,
    "action": 1,
    "reward": 2.9
  },
  {
    "phase": "TASK",
    "condition": "Cond1",
    "trial_num": 36,
    "trial_length": 7,
    "click_num": 6,
    "RT": 2823,
    "action": 1,
    "reward": 2.4
  },
  {
    "phase": "TASK",
    "condition": "Cond1",
    "trial_num": 36,
    "trial_length": 7,
    "click_num": 7,
    "RT": 1456,
    "action": 0,
    "reward": 3.2
  },
  {
    "phase": "TASK",
    "condition": "Cond1",
    "trial_num": 37,
    "trial_length": 6,
    "click_num": 1,
    "RT": 1477,
    "action": 1,
    "reward": 3.2
  },
  {
    "phase": "TASK",
    "condition": "Cond1",
    "trial_num": 37,
    "trial_length": 6,
    "click_num": 2,
    "RT": 2056,
    "action": 1,
    "reward": 3.1
  },
  {
    "phase": "TASK",
    "condition": "Cond1",
    "trial_num": 37,
    "trial_length": 6,
    "click_num": 3,
    "RT": 1440,
    "action": 1,
    "reward": 3.4
  },
  {
    "phase": "TASK",
    "condition": "Cond1",
    "trial_num": 37,
    "trial_length": 6,
    "click_num": 4,
    "RT": 2098,
    "action": 0,
    "reward": 3.4
  },
  {
    "phase": "TASK",
    "condition": "Cond1",
    "trial_num": 37,
    "trial_length": 6,
    "click_num": 5,
    "RT": 1119,
    "action": 0,
    "reward": 3.4
  },
  {
    "phase": "TASK",
    "condition": "Cond1",
    "trial_num": 37,
    "trial_length": 6,
    "click_num": 6,
    "RT": 904,
    "action": 0,
    "reward": 3.4
  },
  {
    "phase": "TASK",
    "condition": "Cond1",
    "trial_num": 38,
    "trial_length": 6,
    "click_num": 1,
    "RT": 1303,
    "action": 1,
    "reward": 3.8
  },
  {
    "phase": "TASK",
    "condition": "Cond1",
    "trial_num": 38,
    "trial_length": 6,
    "click_num": 2,
    "RT": 1585,
    "action": 0,
    "reward": 3.8
  },
  {
    "phase": "TASK",
    "condition": "Cond1",
    "trial_num": 38,
    "trial_length": 6,
    "click_num": 3,
    "RT": 902,
    "action": 0,
    "reward": 3.8
  },
  {
    "phase": "TASK",
    "condition": "Cond1",
    "trial_num": 38,
    "trial_length": 6,
    "click_num": 4,
    "RT": 1008,
    "action": 0,
    "reward": 3.8
  },
  {
    "phase": "TASK",
    "condition": "Cond1",
    "trial_num": 38,
    "trial_length": 6,
    "click_num": 5,
    "RT": 920,
    "action": 0,
    "reward": 3.8
  },
  {
    "phase": "TASK",
    "condition": "Cond1",
    "trial_num": 38,
    "trial_length": 6,
    "click_num": 6,
    "RT": 1041,
    "action": 0,
    "reward": 3.8
  },
  {
    "phase": "TASK",
    "condition": "Cond1",
    "trial_num": 39,
    "trial_length": 5,
    "click_num": 1,
    "RT": 1357,
    "action": 1,
    "reward": 3
  },
  {
    "phase": "TASK",
    "condition": "Cond1",
    "trial_num": 39,
    "trial_length": 5,
    "click_num": 2,
    "RT": 1376,
    "action": 1,
    "reward": 3.2
  },
  {
    "phase": "TASK",
    "condition": "Cond1",
    "trial_num": 39,
    "trial_length": 5,
    "click_num": 3,
    "RT": 1273,
    "action": 1,
    "reward": 3.7
  },
  {
    "phase": "TASK",
    "condition": "Cond1",
    "trial_num": 39,
    "trial_length": 5,
    "click_num": 4,
    "RT": 1525,
    "action": 0,
    "reward": 3.7
  },
  {
    "phase": "TASK",
    "condition": "Cond1",
    "trial_num": 39,
    "trial_length": 5,
    "click_num": 5,
    "RT": 890,
    "action": 0,
    "reward": 3.7
  },
  {
    "phase": "TASK",
    "condition": "Cond1",
    "trial_num": 40,
    "trial_length": 7,
    "click_num": 1,
    "RT": 1359,
    "action": 1,
    "reward": 2.7
  },
  {
    "phase": "TASK",
    "condition": "Cond1",
    "trial_num": 40,
    "trial_length": 7,
    "click_num": 2,
    "RT": 1839,
    "action": 1,
    "reward": 3.1
  },
  {
    "phase": "TASK",
    "condition": "Cond1",
    "trial_num": 40,
    "trial_length": 7,
    "click_num": 3,
    "RT": 1384,
    "action": 1,
    "reward": 2.9
  },
  {
    "phase": "TASK",
    "condition": "Cond1",
    "trial_num": 40,
    "trial_length": 7,
    "click_num": 4,
    "RT": 1251,
    "action": 1,
    "reward": 1.5
  },
  {
    "phase": "TASK",
    "condition": "Cond1",
    "trial_num": 40,
    "trial_length": 7,
    "click_num": 5,
    "RT": 1685,
    "action": 1,
    "reward": 2.2
  },
  {
    "phase": "TASK",
    "condition": "Cond1",
    "trial_num": 40,
    "trial_length": 7,
    "click_num": 6,
    "RT": 1673,
    "action": 1,
    "reward": 3
  },
  {
    "phase": "TASK",
    "condition": "Cond1",
    "trial_num": 40,
    "trial_length": 7,
    "click_num": 7,
    "RT": 1887,
    "action": 1,
    "reward": 2.6
  },
  {
    "phase": "TASK",
    "condition": "Cond1",
    "trial_num": 41,
    "trial_length": 6,
    "click_num": 1,
    "RT": 1383,
    "action": 1,
    "reward": 2.2
  },
  {
    "phase": "TASK",
    "condition": "Cond1",
    "trial_num": 41,
    "trial_length": 6,
    "click_num": 2,
    "RT": 1352,
    "action": 1,
    "reward": 3.9
  },
  {
    "phase": "TASK",
    "condition": "Cond1",
    "trial_num": 41,
    "trial_length": 6,
    "click_num": 3,
    "RT": 1520,
    "action": 0,
    "reward": 3.9
  },
  {
    "phase": "TASK",
    "condition": "Cond1",
    "trial_num": 41,
    "trial_length": 6,
    "click_num": 4,
    "RT": 807,
    "action": 0,
    "reward": 3.9
  },
  {
    "phase": "TASK",
    "condition": "Cond1",
    "trial_num": 41,
    "trial_length": 6,
    "click_num": 5,
    "RT": 1032,
    "action": 0,
    "reward": 3.9
  },
  {
    "phase": "TASK",
    "condition": "Cond1",
    "trial_num": 41,
    "trial_length": 6,
    "click_num": 6,
    "RT": 841,
    "action": 0,
    "reward": 3.9
  },
  {
    "phase": "TASK",
    "condition": "Cond1",
    "trial_num": 42,
    "trial_length": 5,
    "click_num": 1,
    "RT": 1254,
    "action": 1,
    "reward": 1.6
  },
  {
    "phase": "TASK",
    "condition": "Cond1",
    "trial_num": 42,
    "trial_length": 5,
    "click_num": 2,
    "RT": 1746,
    "action": 1,
    "reward": 3.1
  },
  {
    "phase": "TASK",
    "condition": "Cond1",
    "trial_num": 42,
    "trial_length": 5,
    "click_num": 3,
    "RT": 1726,
    "action": 1,
    "reward": 3.4
  },
  {
    "phase": "TASK",
    "condition": "Cond1",
    "trial_num": 42,
    "trial_length": 5,
    "click_num": 4,
    "RT": 3713,
    "action": 1,
    "reward": 2.7
  },
  {
    "phase": "TASK",
    "condition": "Cond1",
    "trial_num": 42,
    "trial_length": 5,
    "click_num": 5,
    "RT": 1064,
    "action": 1,
    "reward": 4
  },
  {
    "phase": "TASK",
    "condition": "Cond1",
    "trial_num": 43,
    "trial_length": 6,
    "click_num": 1,
    "RT": 1182,
    "action": 1,
    "reward": 2.2
  },
  {
    "phase": "TASK",
    "condition": "Cond1",
    "trial_num": 43,
    "trial_length": 6,
    "click_num": 2,
    "RT": 1248,
    "action": 1,
    "reward": 2.1
  },
  {
    "phase": "TASK",
    "condition": "Cond1",
    "trial_num": 43,
    "trial_length": 6,
    "click_num": 3,
    "RT": 1240,
    "action": 1,
    "reward": 3.7
  },
  {
    "phase": "TASK",
    "condition": "Cond1",
    "trial_num": 43,
    "trial_length": 6,
    "click_num": 4,
    "RT": 1631,
    "action": 0,
    "reward": 3.7
  },
  {
    "phase": "TASK",
    "condition": "Cond1",
    "trial_num": 43,
    "trial_length": 6,
    "click_num": 5,
    "RT": 809,
    "action": 0,
    "reward": 3.7
  },
  {
    "phase": "TASK",
    "condition": "Cond1",
    "trial_num": 43,
    "trial_length": 6,
    "click_num": 6,
    "RT": 807,
    "action": 0,
    "reward": 3.7
  },
  {
    "phase": "TASK",
    "condition": "Cond1",
    "trial_num": 44,
    "trial_length": 8,
    "click_num": 1,
    "RT": 1183,
    "action": 1,
    "reward": 1.8
  },
  {
    "phase": "TASK",
    "condition": "Cond1",
    "trial_num": 44,
    "trial_length": 8,
    "click_num": 2,
    "RT": 1655,
    "action": 1,
    "reward": 2.9
  },
  {
    "phase": "TASK",
    "condition": "Cond1",
    "trial_num": 44,
    "trial_length": 8,
    "click_num": 3,
    "RT": 1113,
    "action": 1,
    "reward": 3.2
  },
  {
    "phase": "TASK",
    "condition": "Cond1",
    "trial_num": 44,
    "trial_length": 8,
    "click_num": 4,
    "RT": 1232,
    "action": 1,
    "reward": 3
  },
  {
    "phase": "TASK",
    "condition": "Cond1",
    "trial_num": 44,
    "trial_length": 8,
    "click_num": 5,
    "RT": 1167,
    "action": 1,
    "reward": 3.3
  },
  {
    "phase": "TASK",
    "condition": "Cond1",
    "trial_num": 44,
    "trial_length": 8,
    "click_num": 6,
    "RT": 1440,
    "action": 1,
    "reward": 2.5
  },
  {
    "phase": "TASK",
    "condition": "Cond1",
    "trial_num": 44,
    "trial_length": 8,
    "click_num": 7,
    "RT": 1161,
    "action": 1,
    "reward": 3.7
  },
  {
    "phase": "TASK",
    "condition": "Cond1",
    "trial_num": 44,
    "trial_length": 8,
    "click_num": 8,
    "RT": 1407,
    "action": 0,
    "reward": 3.7
  },
  {
    "phase": "TASK",
    "condition": "Cond1",
    "trial_num": 45,
    "trial_length": 9,
    "click_num": 1,
    "RT": 1135,
    "action": 1,
    "reward": 4.1
  },
  {
    "phase": "TASK",
    "condition": "Cond1",
    "trial_num": 45,
    "trial_length": 9,
    "click_num": 2,
    "RT": 2400,
    "action": 0,
    "reward": 4.1
  },
  {
    "phase": "TASK",
    "condition": "Cond1",
    "trial_num": 45,
    "trial_length": 9,
    "click_num": 3,
    "RT": 945,
    "action": 0,
    "reward": 4.1
  },
  {
    "phase": "TASK",
    "condition": "Cond1",
    "trial_num": 45,
    "trial_length": 9,
    "click_num": 4,
    "RT": 855,
    "action": 0,
    "reward": 4.1
  },
  {
    "phase": "TASK",
    "condition": "Cond1",
    "trial_num": 45,
    "trial_length": 9,
    "click_num": 5,
    "RT": 913,
    "action": 0,
    "reward": 4.1
  },
  {
    "phase": "TASK",
    "condition": "Cond1",
    "trial_num": 45,
    "trial_length": 9,
    "click_num": 6,
    "RT": 1039,
    "action": 0,
    "reward": 4.1
  },
  {
    "phase": "TASK",
    "condition": "Cond1",
    "trial_num": 45,
    "trial_length": 9,
    "click_num": 7,
    "RT": 872,
    "action": 0,
    "reward": 4.1
  },
  {
    "phase": "TASK",
    "condition": "Cond1",
    "trial_num": 45,
    "trial_length": 9,
    "click_num": 8,
    "RT": 881,
    "action": 0,
    "reward": 4.1
  },
  {
    "phase": "TASK",
    "condition": "Cond1",
    "trial_num": 45,
    "trial_length": 9,
    "click_num": 9,
    "RT": 864,
    "action": 0,
    "reward": 4.1
  },
  {
    "phase": "TASK",
    "condition": "Cond1",
    "trial_num": 46,
    "trial_length": 8,
    "click_num": 1,
    "RT": 1056,
    "action": 1,
    "reward": 3.3
  },
  {
    "phase": "TASK",
    "condition": "Cond1",
    "trial_num": 46,
    "trial_length": 8,
    "click_num": 2,
    "RT": 1994,
    "action": 1,
    "reward": 2.1
  },
  {
    "phase": "TASK",
    "condition": "Cond1",
    "trial_num": 46,
    "trial_length": 8,
    "click_num": 3,
    "RT": 1158,
    "action": 1,
    "reward": 3.5
  },
  {
    "phase": "TASK",
    "condition": "Cond1",
    "trial_num": 46,
    "trial_length": 8,
    "click_num": 4,
    "RT": 1277,
    "action": 0,
    "reward": 3.5
  },
  {
    "phase": "TASK",
    "condition": "Cond1",
    "trial_num": 46,
    "trial_length": 8,
    "click_num": 5,
    "RT": 1026,
    "action": 1,
    "reward": 3.3
  },
  {
    "phase": "TASK",
    "condition": "Cond1",
    "trial_num": 46,
    "trial_length": 8,
    "click_num": 6,
    "RT": 1521,
    "action": 0,
    "reward": 3.5
  },
  {
    "phase": "TASK",
    "condition": "Cond1",
    "trial_num": 46,
    "trial_length": 8,
    "click_num": 7,
    "RT": 792,
    "action": 0,
    "reward": 3.5
  },
  {
    "phase": "TASK",
    "condition": "Cond1",
    "trial_num": 46,
    "trial_length": 8,
    "click_num": 8,
    "RT": 799,
    "action": 0,
    "reward": 3.5
  },
  {
    "phase": "TASK",
    "condition": "Cond1",
    "trial_num": 47,
    "trial_length": 10,
    "click_num": 1,
    "RT": 1044,
    "action": 1,
    "reward": 2.8
  },
  {
    "phase": "TASK",
    "condition": "Cond1",
    "trial_num": 47,
    "trial_length": 10,
    "click_num": 2,
    "RT": 1371,
    "action": 1,
    "reward": 3.1
  },
  {
    "phase": "TASK",
    "condition": "Cond1",
    "trial_num": 47,
    "trial_length": 10,
    "click_num": 3,
    "RT": 1264,
    "action": 1,
    "reward": 2.8
  },
  {
    "phase": "TASK",
    "condition": "Cond1",
    "trial_num": 47,
    "trial_length": 10,
    "click_num": 4,
    "RT": 1663,
    "action": 1,
    "reward": 1.9
  },
  {
    "phase": "TASK",
    "condition": "Cond1",
    "trial_num": 47,
    "trial_length": 10,
    "click_num": 5,
    "RT": 1067,
    "action": 1,
    "reward": 4.1
  },
  {
    "phase": "TASK",
    "condition": "Cond1",
    "trial_num": 47,
    "trial_length": 10,
    "click_num": 6,
    "RT": 1550,
    "action": 0,
    "reward": 4.1
  },
  {
    "phase": "TASK",
    "condition": "Cond1",
    "trial_num": 47,
    "trial_length": 10,
    "click_num": 7,
    "RT": 823,
    "action": 0,
    "reward": 4.1
  },
  {
    "phase": "TASK",
    "condition": "Cond1",
    "trial_num": 47,
    "trial_length": 10,
    "click_num": 8,
    "RT": 904,
    "action": 0,
    "reward": 4.1
  },
  {
    "phase": "TASK",
    "condition": "Cond1",
    "trial_num": 47,
    "trial_length": 10,
    "click_num": 9,
    "RT": 832,
    "action": 0,
    "reward": 4.1
  },
  {
    "phase": "TASK",
    "condition": "Cond1",
    "trial_num": 47,
    "trial_length": 10,
    "click_num": 10,
    "RT": 1106,
    "action": 0,
    "reward": 4.1
  },
  {
    "phase": "TASK",
    "condition": "Cond1",
    "trial_num": 48,
    "trial_length": 5,
    "click_num": 1,
    "RT": 1413,
    "action": 1,
    "reward": 2.3
  },
  {
    "phase": "TASK",
    "condition": "Cond1",
    "trial_num": 48,
    "trial_length": 5,
    "click_num": 2,
    "RT": 1320,
    "action": 1,
    "reward": 3.4
  },
  {
    "phase": "TASK",
    "condition": "Cond1",
    "trial_num": 48,
    "trial_length": 5,
    "click_num": 3,
    "RT": 1274,
    "action": 1,
    "reward": 3.3
  },
  {
    "phase": "TASK",
    "condition": "Cond1",
    "trial_num": 48,
    "trial_length": 5,
    "click_num": 4,
    "RT": 1174,
    "action": 1,
    "reward": 2.5
  },
  {
    "phase": "TASK",
    "condition": "Cond1",
    "trial_num": 48,
    "trial_length": 5,
    "click_num": 5,
    "RT": 1169,
    "action": 1,
    "reward": 2.3
  },
  {
    "phase": "TASK",
    "condition": "Cond1",
    "trial_num": 49,
    "trial_length": 7,
    "click_num": 1,
    "RT": 1065,
    "action": 1,
    "reward": 2.6
  },
  {
    "phase": "TASK",
    "condition": "Cond1",
    "trial_num": 49,
    "trial_length": 7,
    "click_num": 2,
    "RT": 1077,
    "action": 1,
    "reward": 3.2
  },
  {
    "phase": "TASK",
    "condition": "Cond1",
    "trial_num": 49,
    "trial_length": 7,
    "click_num": 3,
    "RT": 1112,
    "action": 1,
    "reward": 2.8
  },
  {
    "phase": "TASK",
    "condition": "Cond1",
    "trial_num": 49,
    "trial_length": 7,
    "click_num": 4,
    "RT": 1120,
    "action": 1,
    "reward": 3.1
  },
  {
    "phase": "TASK",
    "condition": "Cond1",
    "trial_num": 49,
    "trial_length": 7,
    "click_num": 5,
    "RT": 1135,
    "action": 1,
    "reward": 1.8
  },
  {
    "phase": "TASK",
    "condition": "Cond1",
    "trial_num": 49,
    "trial_length": 7,
    "click_num": 6,
    "RT": 1658,
    "action": 0,
    "reward": 3.2
  },
  {
    "phase": "TASK",
    "condition": "Cond1",
    "trial_num": 49,
    "trial_length": 7,
    "click_num": 7,
    "RT": 1551,
    "action": 0,
    "reward": 3.2
  },
  {
    "phase": "TASK",
    "condition": "Cond1",
    "trial_num": 50,
    "trial_length": 8,
    "click_num": 1,
    "RT": 1113,
    "action": 1,
    "reward": 2.3
  },
  {
    "phase": "TASK",
    "condition": "Cond1",
    "trial_num": 50,
    "trial_length": 8,
    "click_num": 2,
    "RT": 1894,
    "action": 1,
    "reward": 2.4
  },
  {
    "phase": "TASK",
    "condition": "Cond1",
    "trial_num": 50,
    "trial_length": 8,
    "click_num": 3,
    "RT": 1136,
    "action": 1,
    "reward": 2.9
  },
  {
    "phase": "TASK",
    "condition": "Cond1",
    "trial_num": 50,
    "trial_length": 8,
    "click_num": 4,
    "RT": 1203,
    "action": 1,
    "reward": 2.7
  },
  {
    "phase": "TASK",
    "condition": "Cond1",
    "trial_num": 50,
    "trial_length": 8,
    "click_num": 5,
    "RT": 1150,
    "action": 1,
    "reward": 3.5
  },
  {
    "phase": "TASK",
    "condition": "Cond1",
    "trial_num": 50,
    "trial_length": 8,
    "click_num": 6,
    "RT": 1975,
    "action": 0,
    "reward": 3.5
  },
  {
    "phase": "TASK",
    "condition": "Cond1",
    "trial_num": 50,
    "trial_length": 8,
    "click_num": 7,
    "RT": 840,
    "action": 0,
    "reward": 3.5
  },
  {
    "phase": "TASK",
    "condition": "Cond1",
    "trial_num": 50,
    "trial_length": 8,
    "click_num": 8,
    "RT": 1010,
    "action": 0,
    "reward": 3.5
  },
  {
    "phase": "TASK",
    "condition": "Cond1",
    "trial_num": 51,
    "trial_length": 9,
    "click_num": 1,
    "RT": 1102,
    "action": 1,
    "reward": 2.7
  },
  {
    "phase": "TASK",
    "condition": "Cond1",
    "trial_num": 51,
    "trial_length": 9,
    "click_num": 2,
    "RT": 1159,
    "action": 1,
    "reward": 2.1
  },
  {
    "phase": "TASK",
    "condition": "Cond1",
    "trial_num": 51,
    "trial_length": 9,
    "click_num": 3,
    "RT": 1019,
    "action": 1,
    "reward": 2.8
  },
  {
    "phase": "TASK",
    "condition": "Cond1",
    "trial_num": 51,
    "trial_length": 9,
    "click_num": 4,
    "RT": 1024,
    "action": 1,
    "reward": 4.1
  },
  {
    "phase": "TASK",
    "condition": "Cond1",
    "trial_num": 51,
    "trial_length": 9,
    "click_num": 5,
    "RT": 1405,
    "action": 0,
    "reward": 4.1
  },
  {
    "phase": "TASK",
    "condition": "Cond1",
    "trial_num": 51,
    "trial_length": 9,
    "click_num": 6,
    "RT": 768,
    "action": 0,
    "reward": 4.1
  },
  {
    "phase": "TASK",
    "condition": "Cond1",
    "trial_num": 51,
    "trial_length": 9,
    "click_num": 7,
    "RT": 944,
    "action": 0,
    "reward": 4.1
  },
  {
    "phase": "TASK",
    "condition": "Cond1",
    "trial_num": 51,
    "trial_length": 9,
    "click_num": 8,
    "RT": 800,
    "action": 0,
    "reward": 4.1
  },
  {
    "phase": "TASK",
    "condition": "Cond1",
    "trial_num": 51,
    "trial_length": 9,
    "click_num": 9,
    "RT": 779,
    "action": 0,
    "reward": 4.1
  },
  {
    "phase": "TASK",
    "condition": "Cond1",
    "trial_num": 52,
    "trial_length": 6,
    "click_num": 1,
    "RT": 1185,
    "action": 1,
    "reward": 2.1
  },
  {
    "phase": "TASK",
    "condition": "Cond1",
    "trial_num": 52,
    "trial_length": 6,
    "click_num": 2,
    "RT": 1288,
    "action": 1,
    "reward": 3.5
  },
  {
    "phase": "TASK",
    "condition": "Cond1",
    "trial_num": 52,
    "trial_length": 6,
    "click_num": 3,
    "RT": 2619,
    "action": 1,
    "reward": 3.8
  },
  {
    "phase": "TASK",
    "condition": "Cond1",
    "trial_num": 52,
    "trial_length": 6,
    "click_num": 4,
    "RT": 1500,
    "action": 0,
    "reward": 3.8
  },
  {
    "phase": "TASK",
    "condition": "Cond1",
    "trial_num": 52,
    "trial_length": 6,
    "click_num": 5,
    "RT": 913,
    "action": 0,
    "reward": 3.8
  },
  {
    "phase": "TASK",
    "condition": "Cond1",
    "trial_num": 52,
    "trial_length": 6,
    "click_num": 6,
    "RT": 760,
    "action": 0,
    "reward": 3.8
  },
  {
    "phase": "TASK",
    "condition": "Cond1",
    "trial_num": 53,
    "trial_length": 5,
    "click_num": 1,
    "RT": 1382,
    "action": 1,
    "reward": 3.3
  },
  {
    "phase": "TASK",
    "condition": "Cond1",
    "trial_num": 53,
    "trial_length": 5,
    "click_num": 2,
    "RT": 1327,
    "action": 1,
    "reward": 3.6
  },
  {
    "phase": "TASK",
    "condition": "Cond1",
    "trial_num": 53,
    "trial_length": 5,
    "click_num": 3,
    "RT": 2202,
    "action": 1,
    "reward": 3.1
  },
  {
    "phase": "TASK",
    "condition": "Cond1",
    "trial_num": 53,
    "trial_length": 5,
    "click_num": 4,
    "RT": 1735,
    "action": 0,
    "reward": 3.6
  },
  {
    "phase": "TASK",
    "condition": "Cond1",
    "trial_num": 53,
    "trial_length": 5,
    "click_num": 5,
    "RT": 1047,
    "action": 0,
    "reward": 3.6
  },
  {
    "phase": "TASK",
    "condition": "Cond1",
    "trial_num": 54,
    "trial_length": 8,
    "click_num": 1,
    "RT": 1661,
    "action": 1,
    "reward": 2.7
  },
  {
    "phase": "TASK",
    "condition": "Cond1",
    "trial_num": 54,
    "trial_length": 8,
    "click_num": 2,
    "RT": 1257,
    "action": 1,
    "reward": 2.6
  },
  {
    "phase": "TASK",
    "condition": "Cond1",
    "trial_num": 54,
    "trial_length": 8,
    "click_num": 3,
    "RT": 1015,
    "action": 1,
    "reward": 2.3
  },
  {
    "phase": "TASK",
    "condition": "Cond1",
    "trial_num": 54,
    "trial_length": 8,
    "click_num": 4,
    "RT": 1057,
    "action": 1,
    "reward": 3.4
  },
  {
    "phase": "TASK",
    "condition": "Cond1",
    "trial_num": 54,
    "trial_length": 8,
    "click_num": 5,
    "RT": 1064,
    "action": 1,
    "reward": 4
  },
  {
    "phase": "TASK",
    "condition": "Cond1",
    "trial_num": 54,
    "trial_length": 8,
    "click_num": 6,
    "RT": 1543,
    "action": 0,
    "reward": 4
  },
  {
    "phase": "TASK",
    "condition": "Cond1",
    "trial_num": 54,
    "trial_length": 8,
    "click_num": 7,
    "RT": 769,
    "action": 0,
    "reward": 4
  },
  {
    "phase": "TASK",
    "condition": "Cond1",
    "trial_num": 54,
    "trial_length": 8,
    "click_num": 8,
    "RT": 848,
    "action": 0,
    "reward": 4
  },
  {
    "phase": "TASK",
    "condition": "Cond1",
    "trial_num": 55,
    "trial_length": 8,
    "click_num": 1,
    "RT": 1024,
    "action": 1,
    "reward": 3.5
  },
  {
    "phase": "TASK",
    "condition": "Cond1",
    "trial_num": 55,
    "trial_length": 8,
    "click_num": 2,
    "RT": 1192,
    "action": 1,
    "reward": 2.6
  },
  {
    "phase": "TASK",
    "condition": "Cond1",
    "trial_num": 55,
    "trial_length": 8,
    "click_num": 3,
    "RT": 1015,
    "action": 1,
    "reward": 3.9
  },
  {
    "phase": "TASK",
    "condition": "Cond1",
    "trial_num": 55,
    "trial_length": 8,
    "click_num": 4,
    "RT": 2203,
    "action": 0,
    "reward": 3.9
  },
  {
    "phase": "TASK",
    "condition": "Cond1",
    "trial_num": 55,
    "trial_length": 8,
    "click_num": 5,
    "RT": 941,
    "action": 0,
    "reward": 3.9
  },
  {
    "phase": "TASK",
    "condition": "Cond1",
    "trial_num": 55,
    "trial_length": 8,
    "click_num": 6,
    "RT": 833,
    "action": 0,
    "reward": 3.9
  },
  {
    "phase": "TASK",
    "condition": "Cond1",
    "trial_num": 55,
    "trial_length": 8,
    "click_num": 7,
    "RT": 818,
    "action": 0,
    "reward": 3.9
  },
  {
    "phase": "TASK",
    "condition": "Cond1",
    "trial_num": 55,
    "trial_length": 8,
    "click_num": 8,
    "RT": 821,
    "action": 0,
    "reward": 3.9
  },
  {
    "phase": "TASK",
    "condition": "Cond1",
    "trial_num": 56,
    "trial_length": 10,
    "click_num": 1,
    "RT": 1149,
    "action": 1,
    "reward": 2.5
  },
  {
    "phase": "TASK",
    "condition": "Cond1",
    "trial_num": 56,
    "trial_length": 10,
    "click_num": 2,
    "RT": 1064,
    "action": 1,
    "reward": 3.1
  },
  {
    "phase": "TASK",
    "condition": "Cond1",
    "trial_num": 56,
    "trial_length": 10,
    "click_num": 3,
    "RT": 1020,
    "action": 1,
    "reward": 3.5
  },
  {
    "phase": "TASK",
    "condition": "Cond1",
    "trial_num": 56,
    "trial_length": 10,
    "click_num": 4,
    "RT": 1148,
    "action": 1,
    "reward": 3.2
  },
  {
    "phase": "TASK",
    "condition": "Cond1",
    "trial_num": 56,
    "trial_length": 10,
    "click_num": 5,
    "RT": 1294,
    "action": 1,
    "reward": 3.2
  },
  {
    "phase": "TASK",
    "condition": "Cond1",
    "trial_num": 56,
    "trial_length": 10,
    "click_num": 6,
    "RT": 1253,
    "action": 1,
    "reward": 3.2
  },
  {
    "phase": "TASK",
    "condition": "Cond1",
    "trial_num": 56,
    "trial_length": 10,
    "click_num": 7,
    "RT": 1630,
    "action": 0,
    "reward": 3.5
  },
  {
    "phase": "TASK",
    "condition": "Cond1",
    "trial_num": 56,
    "trial_length": 10,
    "click_num": 8,
    "RT": 1511,
    "action": 1,
    "reward": 3.2
  },
  {
    "phase": "TASK",
    "condition": "Cond1",
    "trial_num": 56,
    "trial_length": 10,
    "click_num": 9,
    "RT": 2176,
    "action": 0,
    "reward": 3.5
  },
  {
    "phase": "TASK",
    "condition": "Cond1",
    "trial_num": 56,
    "trial_length": 10,
    "click_num": 10,
    "RT": 969,
    "action": 0,
    "reward": 3.5
  },
  {
    "phase": "TASK",
    "condition": "Cond1",
    "trial_num": 57,
    "trial_length": 5,
    "click_num": 1,
    "RT": 1286,
    "action": 1,
    "reward": 1.8
  },
  {
    "phase": "TASK",
    "condition": "Cond1",
    "trial_num": 57,
    "trial_length": 5,
    "click_num": 2,
    "RT": 1383,
    "action": 1,
    "reward": 2.2
  },
  {
    "phase": "TASK",
    "condition": "Cond1",
    "trial_num": 57,
    "trial_length": 5,
    "click_num": 3,
    "RT": 1513,
    "action": 1,
    "reward": 2.3
  },
  {
    "phase": "TASK",
    "condition": "Cond1",
    "trial_num": 57,
    "trial_length": 5,
    "click_num": 4,
    "RT": 3367,
    "action": 1,
    "reward": 4.1
  },
  {
    "phase": "TASK",
    "condition": "Cond1",
    "trial_num": 57,
    "trial_length": 5,
    "click_num": 5,
    "RT": 1576,
    "action": 0,
    "reward": 4.1
  },
  {
    "phase": "TASK",
    "condition": "Cond1",
    "trial_num": 58,
    "trial_length": 7,
    "click_num": 1,
    "RT": 1375,
    "action": 1,
    "reward": 3.1
  },
  {
    "phase": "TASK",
    "condition": "Cond1",
    "trial_num": 58,
    "trial_length": 7,
    "click_num": 2,
    "RT": 1293,
    "action": 1,
    "reward": 3.2
  },
  {
    "phase": "TASK",
    "condition": "Cond1",
    "trial_num": 58,
    "trial_length": 7,
    "click_num": 3,
    "RT": 1241,
    "action": 1,
    "reward": 3.3
  },
  {
    "phase": "TASK",
    "condition": "Cond1",
    "trial_num": 58,
    "trial_length": 7,
    "click_num": 4,
    "RT": 1638,
    "action": 1,
    "reward": 3.3
  },
  {
    "phase": "TASK",
    "condition": "Cond1",
    "trial_num": 58,
    "trial_length": 7,
    "click_num": 5,
    "RT": 1529,
    "action": 1,
    "reward": 2.9
  },
  {
    "phase": "TASK",
    "condition": "Cond1",
    "trial_num": 58,
    "trial_length": 7,
    "click_num": 6,
    "RT": 1337,
    "action": 0,
    "reward": 3.3
  },
  {
    "phase": "TASK",
    "condition": "Cond1",
    "trial_num": 58,
    "trial_length": 7,
    "click_num": 7,
    "RT": 960,
    "action": 1,
    "reward": 2.6
  },
  {
    "phase": "TASK",
    "condition": "Cond1",
    "trial_num": 59,
    "trial_length": 8,
    "click_num": 1,
    "RT": 1423,
    "action": 1,
    "reward": 3.5
  },
  {
    "phase": "TASK",
    "condition": "Cond1",
    "trial_num": 59,
    "trial_length": 8,
    "click_num": 2,
    "RT": 1408,
    "action": 1,
    "reward": 2.1
  },
  {
    "phase": "TASK",
    "condition": "Cond1",
    "trial_num": 59,
    "trial_length": 8,
    "click_num": 3,
    "RT": 1097,
    "action": 1,
    "reward": 2.9
  },
  {
    "phase": "TASK",
    "condition": "Cond1",
    "trial_num": 59,
    "trial_length": 8,
    "click_num": 4,
    "RT": 1158,
    "action": 0,
    "reward": 3.5
  },
  {
    "phase": "TASK",
    "condition": "Cond1",
    "trial_num": 59,
    "trial_length": 8,
    "click_num": 5,
    "RT": 801,
    "action": 0,
    "reward": 3.5
  },
  {
    "phase": "TASK",
    "condition": "Cond1",
    "trial_num": 59,
    "trial_length": 8,
    "click_num": 6,
    "RT": 792,
    "action": 0,
    "reward": 3.5
  },
  {
    "phase": "TASK",
    "condition": "Cond1",
    "trial_num": 59,
    "trial_length": 8,
    "click_num": 7,
    "RT": 816,
    "action": 0,
    "reward": 3.5
  },
  {
    "phase": "TASK",
    "condition": "Cond1",
    "trial_num": 59,
    "trial_length": 8,
    "click_num": 8,
    "RT": 840,
    "action": 0,
    "reward": 3.5
  },
  {
    "phase": "TASK",
    "condition": "Cond1",
    "trial_num": 60,
    "trial_length": 9,
    "click_num": 1,
    "RT": 1023,
    "action": 1,
    "reward": 1.8
  },
  {
    "phase": "TASK",
    "condition": "Cond1",
    "trial_num": 60,
    "trial_length": 9,
    "click_num": 2,
    "RT": 1169,
    "action": 1,
    "reward": 2.8
  },
  {
    "phase": "TASK",
    "condition": "Cond1",
    "trial_num": 60,
    "trial_length": 9,
    "click_num": 3,
    "RT": 1119,
    "action": 1,
    "reward": 3.2
  },
  {
    "phase": "TASK",
    "condition": "Cond1",
    "trial_num": 60,
    "trial_length": 9,
    "click_num": 4,
    "RT": 1128,
    "action": 1,
    "reward": 3.8
  },
  {
    "phase": "TASK",
    "condition": "Cond1",
    "trial_num": 60,
    "trial_length": 9,
    "click_num": 5,
    "RT": 1360,
    "action": 0,
    "reward": 3.8
  },
  {
    "phase": "TASK",
    "condition": "Cond1",
    "trial_num": 60,
    "trial_length": 9,
    "click_num": 6,
    "RT": 769,
    "action": 0,
    "reward": 3.8
  },
  {
    "phase": "TASK",
    "condition": "Cond1",
    "trial_num": 60,
    "trial_length": 9,
    "click_num": 7,
    "RT": 783,
    "action": 0,
    "reward": 3.8
  },
  {
    "phase": "TASK",
    "condition": "Cond1",
    "trial_num": 60,
    "trial_length": 9,
    "click_num": 8,
    "RT": 777,
    "action": 0,
    "reward": 3.8
  },
  {
    "phase": "TASK",
    "condition": "Cond1",
    "trial_num": 60,
    "trial_length": 9,
    "click_num": 9,
    "RT": 847,
    "action": 0,
    "reward": 3.8
  },
  {
    "phase": "TASK",
    "condition": "Cond1",
    "trial_num": 61,
    "trial_length": 7,
    "click_num": 1,
    "RT": 1159,
    "action": 1,
    "reward": 2.9
  },
  {
    "phase": "TASK",
    "condition": "Cond1",
    "trial_num": 61,
    "trial_length": 7,
    "click_num": 2,
    "RT": 1144,
    "action": 1,
    "reward": 2.4
  },
  {
    "phase": "TASK",
    "condition": "Cond1",
    "trial_num": 61,
    "trial_length": 7,
    "click_num": 3,
    "RT": 1016,
    "action": 1,
    "reward": 4.6
  },
  {
    "phase": "TASK",
    "condition": "Cond1",
    "trial_num": 61,
    "trial_length": 7,
    "click_num": 4,
    "RT": 1369,
    "action": 0,
    "reward": 4.6
  },
  {
    "phase": "TASK",
    "condition": "Cond1",
    "trial_num": 61,
    "trial_length": 7,
    "click_num": 5,
    "RT": 751,
    "action": 0,
    "reward": 4.6
  },
  {
    "phase": "TASK",
    "condition": "Cond1",
    "trial_num": 61,
    "trial_length": 7,
    "click_num": 6,
    "RT": 761,
    "action": 0,
    "reward": 4.6
  },
  {
    "phase": "TASK",
    "condition": "Cond1",
    "trial_num": 61,
    "trial_length": 7,
    "click_num": 7,
    "RT": 783,
    "action": 0,
    "reward": 4.6
  },
  {
    "phase": "TASK",
    "condition": "Cond1",
    "trial_num": 62,
    "trial_length": 5,
    "click_num": 1,
    "RT": 1105,
    "action": 1,
    "reward": 2.1
  },
  {
    "phase": "TASK",
    "condition": "Cond1",
    "trial_num": 62,
    "trial_length": 5,
    "click_num": 2,
    "RT": 2208,
    "action": 1,
    "reward": 2.8
  },
  {
    "phase": "TASK",
    "condition": "Cond1",
    "trial_num": 62,
    "trial_length": 5,
    "click_num": 3,
    "RT": 944,
    "action": 1,
    "reward": 3.5
  },
  {
    "phase": "TASK",
    "condition": "Cond1",
    "trial_num": 62,
    "trial_length": 5,
    "click_num": 4,
    "RT": 1670,
    "action": 1,
    "reward": 4.1
  },
  {
    "phase": "TASK",
    "condition": "Cond1",
    "trial_num": 62,
    "trial_length": 5,
    "click_num": 5,
    "RT": 1418,
    "action": 0,
    "reward": 4.1
  },
  {
    "phase": "TASK",
    "condition": "Cond1",
    "trial_num": 63,
    "trial_length": 10,
    "click_num": 1,
    "RT": 1219,
    "action": 1,
    "reward": 4.1
  },
  {
    "phase": "TASK",
    "condition": "Cond1",
    "trial_num": 63,
    "trial_length": 10,
    "click_num": 2,
    "RT": 1697,
    "action": 0,
    "reward": 4.1
  },
  {
    "phase": "TASK",
    "condition": "Cond1",
    "trial_num": 63,
    "trial_length": 10,
    "click_num": 3,
    "RT": 959,
    "action": 0,
    "reward": 4.1
  },
  {
    "phase": "TASK",
    "condition": "Cond1",
    "trial_num": 63,
    "trial_length": 10,
    "click_num": 4,
    "RT": 807,
    "action": 0,
    "reward": 4.1
  },
  {
    "phase": "TASK",
    "condition": "Cond1",
    "trial_num": 63,
    "trial_length": 10,
    "click_num": 5,
    "RT": 864,
    "action": 0,
    "reward": 4.1
  },
  {
    "phase": "TASK",
    "condition": "Cond1",
    "trial_num": 63,
    "trial_length": 10,
    "click_num": 6,
    "RT": 928,
    "action": 0,
    "reward": 4.1
  },
  {
    "phase": "TASK",
    "condition": "Cond1",
    "trial_num": 63,
    "trial_length": 10,
    "click_num": 7,
    "RT": 809,
    "action": 0,
    "reward": 4.1
  },
  {
    "phase": "TASK",
    "condition": "Cond1",
    "trial_num": 63,
    "trial_length": 10,
    "click_num": 8,
    "RT": 776,
    "action": 0,
    "reward": 4.1
  },
  {
    "phase": "TASK",
    "condition": "Cond1",
    "trial_num": 63,
    "trial_length": 10,
    "click_num": 9,
    "RT": 831,
    "action": 0,
    "reward": 4.1
  },
  {
    "phase": "TASK",
    "condition": "Cond1",
    "trial_num": 63,
    "trial_length": 10,
    "click_num": 10,
    "RT": 823,
    "action": 0,
    "reward": 4.1
  },
  {
    "phase": "TASK",
    "condition": "Cond1",
    "trial_num": 64,
    "trial_length": 9,
    "click_num": 1,
    "RT": 1181,
    "action": 1,
    "reward": 2.8
  },
  {
    "phase": "TASK",
    "condition": "Cond1",
    "trial_num": 64,
    "trial_length": 9,
    "click_num": 2,
    "RT": 1241,
    "action": 1,
    "reward": 3.9
  },
  {
    "phase": "TASK",
    "condition": "Cond1",
    "trial_num": 64,
    "trial_length": 9,
    "click_num": 3,
    "RT": 2383,
    "action": 0,
    "reward": 3.9
  },
  {
    "phase": "TASK",
    "condition": "Cond1",
    "trial_num": 64,
    "trial_length": 9,
    "click_num": 4,
    "RT": 1256,
    "action": 0,
    "reward": 3.9
  },
  {
    "phase": "TASK",
    "condition": "Cond1",
    "trial_num": 64,
    "trial_length": 9,
    "click_num": 5,
    "RT": 787,
    "action": 0,
    "reward": 3.9
  },
  {
    "phase": "TASK",
    "condition": "Cond1",
    "trial_num": 64,
    "trial_length": 9,
    "click_num": 6,
    "RT": 820,
    "action": 0,
    "reward": 3.9
  },
  {
    "phase": "TASK",
    "condition": "Cond1",
    "trial_num": 64,
    "trial_length": 9,
    "click_num": 7,
    "RT": 826,
    "action": 0,
    "reward": 3.9
  },
  {
    "phase": "TASK",
    "condition": "Cond1",
    "trial_num": 64,
    "trial_length": 9,
    "click_num": 8,
    "RT": 799,
    "action": 0,
    "reward": 3.9
  },
  {
    "phase": "TASK",
    "condition": "Cond1",
    "trial_num": 64,
    "trial_length": 9,
    "click_num": 9,
    "RT": 784,
    "action": 0,
    "reward": 3.9
  },
  {
    "phase": "TASK",
    "condition": "Cond1",
    "trial_num": 65,
    "trial_length": 6,
    "click_num": 1,
    "RT": 1150,
    "action": 1,
    "reward": 3
  },
  {
    "phase": "TASK",
    "condition": "Cond1",
    "trial_num": 65,
    "trial_length": 6,
    "click_num": 2,
    "RT": 936,
    "action": 1,
    "reward": 3.6
  },
  {
    "phase": "TASK",
    "condition": "Cond1",
    "trial_num": 65,
    "trial_length": 6,
    "click_num": 3,
    "RT": 976,
    "action": 1,
    "reward": 3.5
  },
  {
    "phase": "TASK",
    "condition": "Cond1",
    "trial_num": 65,
    "trial_length": 6,
    "click_num": 4,
    "RT": 1067,
    "action": 1,
    "reward": 3.2
  },
  {
    "phase": "TASK",
    "condition": "Cond1",
    "trial_num": 65,
    "trial_length": 6,
    "click_num": 5,
    "RT": 2388,
    "action": 0,
    "reward": 3.6
  },
  {
    "phase": "TASK",
    "condition": "Cond1",
    "trial_num": 65,
    "trial_length": 6,
    "click_num": 6,
    "RT": 777,
    "action": 1,
    "reward": 2.3
  },
  {
    "phase": "TASK",
    "condition": "Cond1",
    "trial_num": 66,
    "trial_length": 7,
    "click_num": 1,
    "RT": 1112,
    "action": 1,
    "reward": 2.6
  },
  {
    "phase": "TASK",
    "condition": "Cond1",
    "trial_num": 66,
    "trial_length": 7,
    "click_num": 2,
    "RT": 1455,
    "action": 1,
    "reward": 3.6
  },
  {
    "phase": "TASK",
    "condition": "Cond1",
    "trial_num": 66,
    "trial_length": 7,
    "click_num": 3,
    "RT": 1337,
    "action": 1,
    "reward": 2.8
  },
  {
    "phase": "TASK",
    "condition": "Cond1",
    "trial_num": 66,
    "trial_length": 7,
    "click_num": 4,
    "RT": 1175,
    "action": 1,
    "reward": 4
  },
  {
    "phase": "TASK",
    "condition": "Cond1",
    "trial_num": 66,
    "trial_length": 7,
    "click_num": 5,
    "RT": 1360,
    "action": 0,
    "reward": 4
  },
  {
    "phase": "TASK",
    "condition": "Cond1",
    "trial_num": 66,
    "trial_length": 7,
    "click_num": 6,
    "RT": 762,
    "action": 0,
    "reward": 4
  },
  {
    "phase": "TASK",
    "condition": "Cond1",
    "trial_num": 66,
    "trial_length": 7,
    "click_num": 7,
    "RT": 902,
    "action": 0,
    "reward": 4
  },
  {
    "phase": "TASK",
    "condition": "Cond1",
    "trial_num": 67,
    "trial_length": 5,
    "click_num": 1,
    "RT": 1110,
    "action": 1,
    "reward": 2.8
  },
  {
    "phase": "TASK",
    "condition": "Cond1",
    "trial_num": 67,
    "trial_length": 5,
    "click_num": 2,
    "RT": 1175,
    "action": 1,
    "reward": 2.7
  },
  {
    "phase": "TASK",
    "condition": "Cond1",
    "trial_num": 67,
    "trial_length": 5,
    "click_num": 3,
    "RT": 970,
    "action": 1,
    "reward": 2
  },
  {
    "phase": "TASK",
    "condition": "Cond1",
    "trial_num": 67,
    "trial_length": 5,
    "click_num": 4,
    "RT": 1016,
    "action": 1,
    "reward": 3.5
  },
  {
    "phase": "TASK",
    "condition": "Cond1",
    "trial_num": 67,
    "trial_length": 5,
    "click_num": 5,
    "RT": 1214,
    "action": 1,
    "reward": 2.6
  },
  {
    "phase": "TASK",
    "condition": "Cond1",
    "trial_num": 68,
    "trial_length": 7,
    "click_num": 1,
    "RT": 1062,
    "action": 1,
    "reward": 4.4
  },
  {
    "phase": "TASK",
    "condition": "Cond1",
    "trial_num": 68,
    "trial_length": 7,
    "click_num": 2,
    "RT": 1681,
    "action": 0,
    "reward": 4.4
  },
  {
    "phase": "TASK",
    "condition": "Cond1",
    "trial_num": 68,
    "trial_length": 7,
    "click_num": 3,
    "RT": 784,
    "action": 0,
    "reward": 4.4
  },
  {
    "phase": "TASK",
    "condition": "Cond1",
    "trial_num": 68,
    "trial_length": 7,
    "click_num": 4,
    "RT": 1181,
    "action": 0,
    "reward": 4.4
  },
  {
    "phase": "TASK",
    "condition": "Cond1",
    "trial_num": 68,
    "trial_length": 7,
    "click_num": 5,
    "RT": 825,
    "action": 0,
    "reward": 4.4
  },
  {
    "phase": "TASK",
    "condition": "Cond1",
    "trial_num": 68,
    "trial_length": 7,
    "click_num": 6,
    "RT": 783,
    "action": 0,
    "reward": 4.4
  },
  {
    "phase": "TASK",
    "condition": "Cond1",
    "trial_num": 68,
    "trial_length": 7,
    "click_num": 7,
    "RT": 786,
    "action": 0,
    "reward": 4.4
  },
  {
    "phase": "TASK",
    "condition": "Cond1",
    "trial_num": 69,
    "trial_length": 6,
    "click_num": 1,
    "RT": 1039,
    "action": 1,
    "reward": 2.3
  },
  {
    "phase": "TASK",
    "condition": "Cond1",
    "trial_num": 69,
    "trial_length": 6,
    "click_num": 2,
    "RT": 1255,
    "action": 1,
    "reward": 3.9
  },
  {
    "phase": "TASK",
    "condition": "Cond1",
    "trial_num": 69,
    "trial_length": 6,
    "click_num": 3,
    "RT": 2537,
    "action": 0,
    "reward": 3.9
  },
  {
    "phase": "TASK",
    "condition": "Cond1",
    "trial_num": 69,
    "trial_length": 6,
    "click_num": 4,
    "RT": 814,
    "action": 0,
    "reward": 3.9
  },
  {
    "phase": "TASK",
    "condition": "Cond1",
    "trial_num": 69,
    "trial_length": 6,
    "click_num": 5,
    "RT": 969,
    "action": 0,
    "reward": 3.9
  },
  {
    "phase": "TASK",
    "condition": "Cond1",
    "trial_num": 69,
    "trial_length": 6,
    "click_num": 6,
    "RT": 1051,
    "action": 0,
    "reward": 3.9
  },
  {
    "phase": "TASK",
    "condition": "Cond1",
    "trial_num": 70,
    "trial_length": 7,
    "click_num": 1,
    "RT": 1001,
    "action": 1,
    "reward": 2.5
  },
  {
    "phase": "TASK",
    "condition": "Cond1",
    "trial_num": 70,
    "trial_length": 7,
    "click_num": 2,
    "RT": 1178,
    "action": 1,
    "reward": 3
  },
  {
    "phase": "TASK",
    "condition": "Cond1",
    "trial_num": 70,
    "trial_length": 7,
    "click_num": 3,
    "RT": 1183,
    "action": 1,
    "reward": 4.1
  },
  {
    "phase": "TASK",
    "condition": "Cond1",
    "trial_num": 70,
    "trial_length": 7,
    "click_num": 4,
    "RT": 1496,
    "action": 0,
    "reward": 4.1
  },
  {
    "phase": "TASK",
    "condition": "Cond1",
    "trial_num": 70,
    "trial_length": 7,
    "click_num": 5,
    "RT": 779,
    "action": 0,
    "reward": 4.1
  },
  {
    "phase": "TASK",
    "condition": "Cond1",
    "trial_num": 70,
    "trial_length": 7,
    "click_num": 6,
    "RT": 833,
    "action": 0,
    "reward": 4.1
  },
  {
    "phase": "TASK",
    "condition": "Cond1",
    "trial_num": 70,
    "trial_length": 7,
    "click_num": 7,
    "RT": 813,
    "action": 0,
    "reward": 4.1
  },
  {
    "phase": "TASK",
    "condition": "Cond1",
    "trial_num": 71,
    "trial_length": 9,
    "click_num": 1,
    "RT": 1341,
    "action": 1,
    "reward": 3.1
  },
  {
    "phase": "TASK",
    "condition": "Cond1",
    "trial_num": 71,
    "trial_length": 9,
    "click_num": 2,
    "RT": 1464,
    "action": 1,
    "reward": 2.9
  },
  {
    "phase": "TASK",
    "condition": "Cond1",
    "trial_num": 71,
    "trial_length": 9,
    "click_num": 3,
    "RT": 1066,
    "action": 1,
    "reward": 3.7
  },
  {
    "phase": "TASK",
    "condition": "Cond1",
    "trial_num": 71,
    "trial_length": 9,
    "click_num": 4,
    "RT": 1326,
    "action": 1,
    "reward": 3.1
  },
  {
    "phase": "TASK",
    "condition": "Cond1",
    "trial_num": 71,
    "trial_length": 9,
    "click_num": 5,
    "RT": 1097,
    "action": 1,
    "reward": 3.8
  },
  {
    "phase": "TASK",
    "condition": "Cond1",
    "trial_num": 71,
    "trial_length": 9,
    "click_num": 6,
    "RT": 2010,
    "action": 1,
    "reward": 2.8
  },
  {
    "phase": "TASK",
    "condition": "Cond1",
    "trial_num": 71,
    "trial_length": 9,
    "click_num": 7,
    "RT": 1558,
    "action": 0,
    "reward": 3.8
  },
  {
    "phase": "TASK",
    "condition": "Cond1",
    "trial_num": 71,
    "trial_length": 9,
    "click_num": 8,
    "RT": 816,
    "action": 0,
    "reward": 3.8
  },
  {
    "phase": "TASK",
    "condition": "Cond1",
    "trial_num": 71,
    "trial_length": 9,
    "click_num": 9,
    "RT": 850,
    "action": 0,
    "reward": 3.8
  },
  {
    "phase": "TASK",
    "condition": "Cond1",
    "trial_num": 72,
    "trial_length": 6,
    "click_num": 1,
    "RT": 1310,
    "action": 1,
    "reward": 2.8
  },
  {
    "phase": "TASK",
    "condition": "Cond1",
    "trial_num": 72,
    "trial_length": 6,
    "click_num": 2,
    "RT": 1008,
    "action": 1,
    "reward": 3.1
  },
  {
    "phase": "TASK",
    "condition": "Cond1",
    "trial_num": 72,
    "trial_length": 6,
    "click_num": 3,
    "RT": 912,
    "action": 1,
    "reward": 4.5
  },
  {
    "phase": "TASK",
    "condition": "Cond1",
    "trial_num": 72,
    "trial_length": 6,
    "click_num": 4,
    "RT": 1554,
    "action": 0,
    "reward": 4.5
  },
  {
    "phase": "TASK",
    "condition": "Cond1",
    "trial_num": 72,
    "trial_length": 6,
    "click_num": 5,
    "RT": 782,
    "action": 0,
    "reward": 4.5
  },
  {
    "phase": "TASK",
    "condition": "Cond1",
    "trial_num": 72,
    "trial_length": 6,
    "click_num": 6,
    "RT": 808,
    "action": 0,
    "reward": 4.5
  },
  {
    "phase": "TASK",
    "condition": "Cond1",
    "trial_num": 73,
    "trial_length": 5,
    "click_num": 1,
    "RT": 950,
    "action": 1,
    "reward": 3.4
  },
  {
    "phase": "TASK",
    "condition": "Cond1",
    "trial_num": 73,
    "trial_length": 5,
    "click_num": 2,
    "RT": 1048,
    "action": 1,
    "reward": 3.6
  },
  {
    "phase": "TASK",
    "condition": "Cond1",
    "trial_num": 73,
    "trial_length": 5,
    "click_num": 3,
    "RT": 1040,
    "action": 1,
    "reward": 2.3
  },
  {
    "phase": "TASK",
    "condition": "Cond1",
    "trial_num": 73,
    "trial_length": 5,
    "click_num": 4,
    "RT": 1000,
    "action": 1,
    "reward": 2.7
  },
  {
    "phase": "TASK",
    "condition": "Cond1",
    "trial_num": 73,
    "trial_length": 5,
    "click_num": 5,
    "RT": 1209,
    "action": 1,
    "reward": 2.4
  },
  {
    "phase": "TASK",
    "condition": "Cond1",
    "trial_num": 74,
    "trial_length": 10,
    "click_num": 1,
    "RT": 1057,
    "action": 1,
    "reward": 2.7
  },
  {
    "phase": "TASK",
    "condition": "Cond1",
    "trial_num": 74,
    "trial_length": 10,
    "click_num": 2,
    "RT": 920,
    "action": 1,
    "reward": 3.2
  },
  {
    "phase": "TASK",
    "condition": "Cond1",
    "trial_num": 74,
    "trial_length": 10,
    "click_num": 3,
    "RT": 1121,
    "action": 1,
    "reward": 2.7
  },
  {
    "phase": "TASK",
    "condition": "Cond1",
    "trial_num": 74,
    "trial_length": 10,
    "click_num": 4,
    "RT": 1087,
    "action": 1,
    "reward": 2.2
  },
  {
    "phase": "TASK",
    "condition": "Cond1",
    "trial_num": 74,
    "trial_length": 10,
    "click_num": 5,
    "RT": 1105,
    "action": 1,
    "reward": 3.6
  },
  {
    "phase": "TASK",
    "condition": "Cond1",
    "trial_num": 74,
    "trial_length": 10,
    "click_num": 6,
    "RT": 2322,
    "action": 1,
    "reward": 1.9
  },
  {
    "phase": "TASK",
    "condition": "Cond1",
    "trial_num": 74,
    "trial_length": 10,
    "click_num": 7,
    "RT": 1044,
    "action": 1,
    "reward": 2.1
  },
  {
    "phase": "TASK",
    "condition": "Cond1",
    "trial_num": 74,
    "trial_length": 10,
    "click_num": 8,
    "RT": 1135,
    "action": 1,
    "reward": 3.7
  },
  {
    "phase": "TASK",
    "condition": "Cond1",
    "trial_num": 74,
    "trial_length": 10,
    "click_num": 9,
    "RT": 1698,
    "action": 1,
    "reward": 3
  },
  {
    "phase": "TASK",
    "condition": "Cond1",
    "trial_num": 74,
    "trial_length": 10,
    "click_num": 10,
    "RT": 1097,
    "action": 1,
    "reward": 2.2
  },
  {
    "phase": "TASK",
    "condition": "Cond1",
    "trial_num": 75,
    "trial_length": 5,
    "click_num": 1,
    "RT": 1052,
    "action": 1,
    "reward": 2.4
  },
  {
    "phase": "TASK",
    "condition": "Cond1",
    "trial_num": 75,
    "trial_length": 5,
    "click_num": 2,
    "RT": 969,
    "action": 1,
    "reward": 3
  },
  {
    "phase": "TASK",
    "condition": "Cond1",
    "trial_num": 75,
    "trial_length": 5,
    "click_num": 3,
    "RT": 1096,
    "action": 1,
    "reward": 2.5
  },
  {
    "phase": "TASK",
    "condition": "Cond1",
    "trial_num": 75,
    "trial_length": 5,
    "click_num": 4,
    "RT": 971,
    "action": 1,
    "reward": 3.4
  },
  {
    "phase": "TASK",
    "condition": "Cond1",
    "trial_num": 75,
    "trial_length": 5,
    "click_num": 5,
    "RT": 1566,
    "action": 1,
    "reward": 3.3
  },
  {
    "phase": "TASK",
    "condition": "Cond1",
    "trial_num": 76,
    "trial_length": 10,
    "click_num": 1,
    "RT": 966,
    "action": 1,
    "reward": 3
  },
  {
    "phase": "TASK",
    "condition": "Cond1",
    "trial_num": 76,
    "trial_length": 10,
    "click_num": 2,
    "RT": 968,
    "action": 1,
    "reward": 2.6
  },
  {
    "phase": "TASK",
    "condition": "Cond1",
    "trial_num": 76,
    "trial_length": 10,
    "click_num": 3,
    "RT": 1136,
    "action": 1,
    "reward": 1.9
  },
  {
    "phase": "TASK",
    "condition": "Cond1",
    "trial_num": 76,
    "trial_length": 10,
    "click_num": 4,
    "RT": 1168,
    "action": 1,
    "reward": 3.4
  },
  {
    "phase": "TASK",
    "condition": "Cond1",
    "trial_num": 76,
    "trial_length": 10,
    "click_num": 5,
    "RT": 1320,
    "action": 1,
    "reward": 2.1
  },
  {
    "phase": "TASK",
    "condition": "Cond1",
    "trial_num": 76,
    "trial_length": 10,
    "click_num": 6,
    "RT": 1266,
    "action": 1,
    "reward": 1.4
  },
  {
    "phase": "TASK",
    "condition": "Cond1",
    "trial_num": 76,
    "trial_length": 10,
    "click_num": 7,
    "RT": 1374,
    "action": 1,
    "reward": 1.3
  },
  {
    "phase": "TASK",
    "condition": "Cond1",
    "trial_num": 76,
    "trial_length": 10,
    "click_num": 8,
    "RT": 1720,
    "action": 1,
    "reward": 2.6
  },
  {
    "phase": "TASK",
    "condition": "Cond1",
    "trial_num": 76,
    "trial_length": 10,
    "click_num": 9,
    "RT": 1127,
    "action": 1,
    "reward": 2.1
  },
  {
    "phase": "TASK",
    "condition": "Cond1",
    "trial_num": 76,
    "trial_length": 10,
    "click_num": 10,
    "RT": 1193,
    "action": 1,
    "reward": 2.6
  },
  {
    "phase": "TASK",
    "condition": "Cond1",
    "trial_num": 77,
    "trial_length": 8,
    "click_num": 1,
    "RT": 994,
    "action": 1,
    "reward": 2.2
  },
  {
    "phase": "TASK",
    "condition": "Cond1",
    "trial_num": 77,
    "trial_length": 8,
    "click_num": 2,
    "RT": 1420,
    "action": 1,
    "reward": 1.7
  },
  {
    "phase": "TASK",
    "condition": "Cond1",
    "trial_num": 77,
    "trial_length": 8,
    "click_num": 3,
    "RT": 1017,
    "action": 1,
    "reward": 2.8
  },
  {
    "phase": "TASK",
    "condition": "Cond1",
    "trial_num": 77,
    "trial_length": 8,
    "click_num": 4,
    "RT": 1194,
    "action": 1,
    "reward": 3.1
  },
  {
    "phase": "TASK",
    "condition": "Cond1",
    "trial_num": 77,
    "trial_length": 8,
    "click_num": 5,
    "RT": 1142,
    "action": 1,
    "reward": 2.4
  },
  {
    "phase": "TASK",
    "condition": "Cond1",
    "trial_num": 77,
    "trial_length": 8,
    "click_num": 6,
    "RT": 1160,
    "action": 1,
    "reward": 3.5
  },
  {
    "phase": "TASK",
    "condition": "Cond1",
    "trial_num": 77,
    "trial_length": 8,
    "click_num": 7,
    "RT": 2335,
    "action": 0,
    "reward": 3.5
  },
  {
    "phase": "TASK",
    "condition": "Cond1",
    "trial_num": 77,
    "trial_length": 8,
    "click_num": 8,
    "RT": 1008,
    "action": 0,
    "reward": 3.5
  },
  {
    "phase": "TASK",
    "condition": "Cond1",
    "trial_num": 78,
    "trial_length": 8,
    "click_num": 1,
    "RT": 935,
    "action": 1,
    "reward": 3.4
  },
  {
    "phase": "TASK",
    "condition": "Cond1",
    "trial_num": 78,
    "trial_length": 8,
    "click_num": 2,
    "RT": 1144,
    "action": 1,
    "reward": 3
  },
  {
    "phase": "TASK",
    "condition": "Cond1",
    "trial_num": 78,
    "trial_length": 8,
    "click_num": 3,
    "RT": 1232,
    "action": 1,
    "reward": 3.4
  },
  {
    "phase": "TASK",
    "condition": "Cond1",
    "trial_num": 78,
    "trial_length": 8,
    "click_num": 4,
    "RT": 944,
    "action": 1,
    "reward": 3.5
  },
  {
    "phase": "TASK",
    "condition": "Cond1",
    "trial_num": 78,
    "trial_length": 8,
    "click_num": 5,
    "RT": 1239,
    "action": 1,
    "reward": 3.1
  },
  {
    "phase": "TASK",
    "condition": "Cond1",
    "trial_num": 78,
    "trial_length": 8,
    "click_num": 6,
    "RT": 2025,
    "action": 0,
    "reward": 3.5
  },
  {
    "phase": "TASK",
    "condition": "Cond1",
    "trial_num": 78,
    "trial_length": 8,
    "click_num": 7,
    "RT": 816,
    "action": 0,
    "reward": 3.5
  },
  {
    "phase": "TASK",
    "condition": "Cond1",
    "trial_num": 78,
    "trial_length": 8,
    "click_num": 8,
    "RT": 767,
    "action": 0,
    "reward": 3.5
  },
  {
    "phase": "TASK",
    "condition": "Cond1",
    "trial_num": 79,
    "trial_length": 6,
    "click_num": 1,
    "RT": 1256,
    "action": 1,
    "reward": 3.4
  },
  {
    "phase": "TASK",
    "condition": "Cond1",
    "trial_num": 79,
    "trial_length": 6,
    "click_num": 2,
    "RT": 1247,
    "action": 1,
    "reward": 1.9
  },
  {
    "phase": "TASK",
    "condition": "Cond1",
    "trial_num": 79,
    "trial_length": 6,
    "click_num": 3,
    "RT": 995,
    "action": 1,
    "reward": 3.4
  },
  {
    "phase": "TASK",
    "condition": "Cond1",
    "trial_num": 79,
    "trial_length": 6,
    "click_num": 4,
    "RT": 1205,
    "action": 0,
    "reward": 3.4
  },
  {
    "phase": "TASK",
    "condition": "Cond1",
    "trial_num": 79,
    "trial_length": 6,
    "click_num": 5,
    "RT": 784,
    "action": 0,
    "reward": 3.4
  },
  {
    "phase": "TASK",
    "condition": "Cond1",
    "trial_num": 79,
    "trial_length": 6,
    "click_num": 6,
    "RT": 809,
    "action": 0,
    "reward": 3.4
  },
  {
    "phase": "TASK",
    "condition": "Cond1",
    "trial_num": 80,
    "trial_length": 6,
    "click_num": 1,
    "RT": 983,
    "action": 1,
    "reward": 2.5
  },
  {
    "phase": "TASK",
    "condition": "Cond1",
    "trial_num": 80,
    "trial_length": 6,
    "click_num": 2,
    "RT": 1191,
    "action": 1,
    "reward": 3.8
  },
  {
    "phase": "TASK",
    "condition": "Cond1",
    "trial_num": 80,
    "trial_length": 6,
    "click_num": 3,
    "RT": 1353,
    "action": 0,
    "reward": 3.8
  },
  {
    "phase": "TASK",
    "condition": "Cond1",
    "trial_num": 80,
    "trial_length": 6,
    "click_num": 4,
    "RT": 791,
    "action": 0,
    "reward": 3.8
  },
  {
    "phase": "TASK",
    "condition": "Cond1",
    "trial_num": 80,
    "trial_length": 6,
    "click_num": 5,
    "RT": 801,
    "action": 0,
    "reward": 3.8
  },
  {
    "phase": "TASK",
    "condition": "Cond1",
    "trial_num": 80,
    "trial_length": 6,
    "click_num": 6,
    "RT": 759,
    "action": 0,
    "reward": 3.8
  },
  {
    "phase": "TASK",
    "condition": "Cond1",
    "trial_num": 81,
    "trial_length": 10,
    "click_num": 1,
    "RT": 1144,
    "action": 1,
    "reward": 4
  },
  {
    "phase": "TASK",
    "condition": "Cond1",
    "trial_num": 81,
    "trial_length": 10,
    "click_num": 2,
    "RT": 1761,
    "action": 0,
    "reward": 4
  },
  {
    "phase": "TASK",
    "condition": "Cond1",
    "trial_num": 81,
    "trial_length": 10,
    "click_num": 3,
    "RT": 911,
    "action": 0,
    "reward": 4
  },
  {
    "phase": "TASK",
    "condition": "Cond1",
    "trial_num": 81,
    "trial_length": 10,
    "click_num": 4,
    "RT": 1194,
    "action": 0,
    "reward": 4
  },
  {
    "phase": "TASK",
    "condition": "Cond1",
    "trial_num": 81,
    "trial_length": 10,
    "click_num": 5,
    "RT": 3719,
    "action": 0,
    "reward": 4
  },
  {
    "phase": "TASK",
    "condition": "Cond1",
    "trial_num": 81,
    "trial_length": 10,
    "click_num": 6,
    "RT": 1095,
    "action": 0,
    "reward": 4
  },
  {
    "phase": "TASK",
    "condition": "Cond1",
    "trial_num": 81,
    "trial_length": 10,
    "click_num": 7,
    "RT": 1376,
    "action": 0,
    "reward": 4
  },
  {
    "phase": "TASK",
    "condition": "Cond1",
    "trial_num": 81,
    "trial_length": 10,
    "click_num": 8,
    "RT": 1216,
    "action": 0,
    "reward": 4
  },
  {
    "phase": "TASK",
    "condition": "Cond1",
    "trial_num": 81,
    "trial_length": 10,
    "click_num": 9,
    "RT": 864,
    "action": 0,
    "reward": 4
  },
  {
    "phase": "TASK",
    "condition": "Cond1",
    "trial_num": 81,
    "trial_length": 10,
    "click_num": 10,
    "RT": 808,
    "action": 0,
    "reward": 4
  },
  {
    "phase": "TASK",
    "condition": "Cond1",
    "trial_num": 82,
    "trial_length": 9,
    "click_num": 1,
    "RT": 1117,
    "action": 1,
    "reward": 3.6
  },
  {
    "phase": "TASK",
    "condition": "Cond1",
    "trial_num": 82,
    "trial_length": 9,
    "click_num": 2,
    "RT": 1359,
    "action": 1,
    "reward": 3.3
  },
  {
    "phase": "TASK",
    "condition": "Cond1",
    "trial_num": 82,
    "trial_length": 9,
    "click_num": 3,
    "RT": 1119,
    "action": 1,
    "reward": 2.5
  },
  {
