[
  {
    "phase": "TASK",
    "condition": "Cond1",
    "trial_num": 1,
    "trial_length": 8,
    "click_num": 1,
    "RT": 6943,
    "action": 1,
    "reward": 2.1
  },
  {
    "phase": "TASK",
    "condition": "Cond1",
    "trial_num": 1,
    "trial_length": 8,
    "click_num": 2,
    "RT": 6262,
    "action": 1,
    "reward": 3.1
  },
  {
    "phase": "TASK",
    "condition": "Cond1",
    "trial_num": 1,
    "trial_length": 8,
    "click_num": 3,
    "RT": 3431,
    "action": 1,
    "reward": 2.8
  },
  {
    "phase": "TASK",
    "condition": "Cond1",
    "trial_num": 1,
    "trial_length": 8,
    "click_num": 4,
    "RT": 3591,
    "action": 1,
    "reward": 2.9
  },
  {
    "phase": "TASK",
    "condition": "Cond1",
    "trial_num": 1,
    "trial_length": 8,
    "click_num": 5,
    "RT": 6457,
    "action": 1,
    "reward": 3.2
  },
  {
    "phase": "TASK",
    "condition": "Cond1",
    "trial_num": 1,
    "trial_length": 8,
    "click_num": 6,
    "RT": 9528,
    "action": 1,
    "reward": 2.6
  },
  {
    "phase": "TASK",
    "condition": "Cond1",
    "trial_num": 1,
    "trial_length": 8,
    "click_num": 7,
    "RT": 2591,
    "action": 0,
    "reward": 3.2
  },
  {
    "phase": "TASK",
    "condition": "Cond1",
    "trial_num": 1,
    "trial_length": 8,
    "click_num": 8,
    "RT": 7946,
    "action": 0,
    "reward": 3.2
  },
  {
    "phase": "TASK",
    "condition": "Cond1",
    "trial_num": 2,
    "trial_length": 9,
    "click_num": 1,
    "RT": 1989,
    "action": 1,
    "reward": 2
  },
  {
    "phase": "TASK",
    "condition": "Cond1",
    "trial_num": 2,
    "trial_length": 9,
    "click_num": 2,
    "RT": 1904,
    "action": 1,
    "reward": 2
  },
  {
    "phase": "TASK",
    "condition": "Cond1",
    "trial_num": 2,
    "trial_length": 9,
    "click_num": 3,
    "RT": 2833,
    "action": 1,
    "reward": 2.1
  },
  {
    "phase": "TASK",
    "condition": "Cond1",
    "trial_num": 2,
    "trial_length": 9,
    "click_num": 4,
    "RT": 1735,
    "action": 1,
    "reward": 3
  },
  {
    "phase": "TASK",
    "condition": "Cond1",
    "trial_num": 2,
    "trial_length": 9,
    "click_num": 5,
    "RT": 1731,
    "action": 1,
    "reward": 2.6
  },
  {
    "phase": "TASK",
    "condition": "Cond1",
    "trial_num": 2,
    "trial_length": 9,
    "click_num": 6,
    "RT": 1749,
    "action": 1,
    "reward": 2.5
  },
  {
    "phase": "TASK",
    "condition": "Cond1",
    "trial_num": 2,
    "trial_length": 9,
    "click_num": 7,
    "RT": 1424,
    "action": 1,
    "reward": 2.3
  },
  {
    "phase": "TASK",
    "condition": "Cond1",
    "trial_num": 2,
    "trial_length": 9,
    "click_num": 8,
    "RT": 2601,
    "action": 0,
    "reward": 3
  },
  {
    "phase": "TASK",
    "condition": "Cond1",
    "trial_num": 2,
    "trial_length": 9,
    "click_num": 9,
    "RT": 3199,
    "action": 0,
    "reward": 3
  },
  {
    "phase": "TASK",
    "condition": "Cond1",
    "trial_num": 3,
    "trial_length": 7,
    "click_num": 1,
    "RT": 2568,
    "action": 1,
    "reward": 3.3
  },
  {
    "phase": "TASK",
    "condition": "Cond1",
    "trial_num": 3,
    "trial_length": 7,
    "click_num": 2,
    "RT": 2256,
    "action": 1,
    "reward": 3.3
  },
  {
    "phase": "TASK",
    "condition": "Cond1",
    "trial_num": 3,
    "trial_length": 7,
    "click_num": 3,
    "RT": 1791,
    "action": 1,
    "reward": 2.8
  },
  {
    "phase": "TASK",
    "condition": "Cond1",
    "trial_num": 3,
    "trial_length": 7,
    "click_num": 4,
    "RT": 1689,
    "action": 0,
    "reward": 3.3
  },
  {
    "phase": "TASK",
    "condition": "Cond1",
    "trial_num": 3,
    "trial_length": 7,
    "click_num": 5,
    "RT": 1215,
    "action": 1,
    "reward": 3.3
  },
  {
    "phase": "TASK",
    "condition": "Cond1",
    "trial_num": 3,
    "trial_length": 7,
    "click_num": 6,
    "RT": 2257,
    "action": 1,
    "reward": 3.2
  },
  {
    "phase": "TASK",
    "condition": "Cond1",
    "trial_num": 3,
    "trial_length": 7,
    "click_num": 7,
    "RT": 4416,
    "action": 1,
    "reward": 4.3
  },
  {
    "phase": "TASK",
    "condition": "Cond1",
    "trial_num": 4,
    "trial_length": 6,
    "click_num": 1,
    "RT": 2287,
    "action": 1,
    "reward": 3.6
  },
  {
    "phase": "TASK",
    "condition": "Cond1",
    "trial_num": 4,
    "trial_length": 6,
    "click_num": 2,
    "RT": 2592,
    "action": 1,
    "reward": 2.4
  },
  {
    "phase": "TASK",
    "condition": "Cond1",
    "trial_num": 4,
    "trial_length": 6,
    "click_num": 3,
    "RT": 1417,
    "action": 0,
    "reward": 3.6
  },
  {
    "phase": "TASK",
    "condition": "Cond1",
    "trial_num": 4,
    "trial_length": 6,
    "click_num": 4,
    "RT": 1101,
    "action": 1,
    "reward": 2.6
  },
  {
    "phase": "TASK",
    "condition": "Cond1",
    "trial_num": 4,
    "trial_length": 6,
    "click_num": 5,
    "RT": 3121,
    "action": 1,
    "reward": 2.7
  },
  {
    "phase": "TASK",
    "condition": "Cond1",
    "trial_num": 4,
    "trial_length": 6,
    "click_num": 6,
    "RT": 1985,
    "action": 0,
    "reward": 3.6
  },
  {
    "phase": "TASK",
    "condition": "Cond1",
    "trial_num": 5,
    "trial_length": 10,
    "click_num": 1,
    "RT": 1680,
    "action": 1,
    "reward": 2.8
  },
  {
    "phase": "TASK",
    "condition": "Cond1",
    "trial_num": 5,
    "trial_length": 10,
    "click_num": 2,
    "RT": 1279,
    "action": 1,
    "reward": 3.4
  },
  {
    "phase": "TASK",
    "condition": "Cond1",
    "trial_num": 5,
    "trial_length": 10,
    "click_num": 3,
    "RT": 1233,
    "action": 1,
    "reward": 2.5
  },
  {
    "phase": "TASK",
    "condition": "Cond1",
    "trial_num": 5,
    "trial_length": 10,
    "click_num": 4,
    "RT": 1494,
    "action": 1,
    "reward": 3.1
  },
  {
    "phase": "TASK",
    "condition": "Cond1",
    "trial_num": 5,
    "trial_length": 10,
    "click_num": 5,
    "RT": 1514,
    "action": 1,
    "reward": 3.8
  },
  {
    "phase": "TASK",
    "condition": "Cond1",
    "trial_num": 5,
    "trial_length": 10,
    "click_num": 6,
    "RT": 3871,
    "action": 1,
    "reward": 2.5
  },
  {
    "phase": "TASK",
    "condition": "Cond1",
    "trial_num": 5,
    "trial_length": 10,
    "click_num": 7,
    "RT": 1584,
    "action": 0,
    "reward": 3.8
  },
  {
    "phase": "TASK",
    "condition": "Cond1",
    "trial_num": 5,
    "trial_length": 10,
    "click_num": 8,
    "RT": 872,
    "action": 0,
    "reward": 3.8
  },
  {
    "phase": "TASK",
    "condition": "Cond1",
    "trial_num": 5,
    "trial_length": 10,
    "click_num": 9,
    "RT": 945,
    "action": 0,
    "reward": 3.8
  },
  {
    "phase": "TASK",
    "condition": "Cond1",
    "trial_num": 5,
    "trial_length": 10,
    "click_num": 10,
    "RT": 1448,
    "action": 0,
    "reward": 3.8
  },
  {
    "phase": "TASK",
    "condition": "Cond1",
    "trial_num": 6,
    "trial_length": 10,
    "click_num": 1,
    "RT": 1521,
    "action": 1,
    "reward": 2.7
  },
  {
    "phase": "TASK",
    "condition": "Cond1",
    "trial_num": 6,
    "trial_length": 10,
    "click_num": 2,
    "RT": 1544,
    "action": 1,
    "reward": 3.9
  },
  {
    "phase": "TASK",
    "condition": "Cond1",
    "trial_num": 6,
    "trial_length": 10,
    "click_num": 3,
    "RT": 2129,
    "action": 1,
    "reward": 2.1
  },
  {
    "phase": "TASK",
    "condition": "Cond1",
    "trial_num": 6,
    "trial_length": 10,
    "click_num": 4,
    "RT": 1503,
    "action": 0,
    "reward": 3.9
  },
  {
    "phase": "TASK",
    "condition": "Cond1",
    "trial_num": 6,
    "trial_length": 10,
    "click_num": 5,
    "RT": 3319,
    "action": 0,
    "reward": 3.9
  },
  {
    "phase": "TASK",
    "condition": "Cond1",
    "trial_num": 6,
    "trial_length": 10,
    "click_num": 6,
    "RT": 984,
    "action": 0,
    "reward": 3.9
  },
  {
    "phase": "TASK",
    "condition": "Cond1",
    "trial_num": 6,
    "trial_length": 10,
    "click_num": 7,
    "RT": 961,
    "action": 0,
    "reward": 3.9
  },
  {
    "phase": "TASK",
    "condition": "Cond1",
    "trial_num": 6,
    "trial_length": 10,
    "click_num": 8,
    "RT": 895,
    "action": 0,
    "reward": 3.9
  },
  {
    "phase": "TASK",
    "condition": "Cond1",
    "trial_num": 6,
    "trial_length": 10,
    "click_num": 9,
    "RT": 985,
    "action": 0,
    "reward": 3.9
  },
  {
    "phase": "TASK",
    "condition": "Cond1",
    "trial_num": 6,
    "trial_length": 10,
    "click_num": 10,
    "RT": 2822,
    "action": 0,
    "reward": 3.9
  },
  {
    "phase": "TASK",
    "condition": "Cond1",
    "trial_num": 7,
    "trial_length": 10,
    "click_num": 1,
    "RT": 3348,
    "action": 1,
    "reward": 3.7
  },
  {
    "phase": "TASK",
    "condition": "Cond1",
    "trial_num": 7,
    "trial_length": 10,
    "click_num": 2,
    "RT": 2438,
    "action": 1,
    "reward": 3
  },
  {
    "phase": "TASK",
    "condition": "Cond1",
    "trial_num": 7,
    "trial_length": 10,
    "click_num": 3,
    "RT": 1418,
    "action": 1,
    "reward": 3.2
  },
  {
    "phase": "TASK",
    "condition": "Cond1",
    "trial_num": 7,
    "trial_length": 10,
    "click_num": 4,
    "RT": 2379,
    "action": 1,
    "reward": 2.3
  },
  {
    "phase": "TASK",
    "condition": "Cond1",
    "trial_num": 7,
    "trial_length": 10,
    "click_num": 5,
    "RT": 2925,
    "action": 1,
    "reward": 2.3
  },
  {
    "phase": "TASK",
    "condition": "Cond1",
    "trial_num": 7,
    "trial_length": 10,
    "click_num": 6,
    "RT": 1168,
    "action": 0,
    "reward": 3.7
  },
  {
    "phase": "TASK",
    "condition": "Cond1",
    "trial_num": 7,
    "trial_length": 10,
    "click_num": 7,
    "RT": 1328,
    "action": 0,
    "reward": 3.7
  },
  {
    "phase": "TASK",
    "condition": "Cond1",
    "trial_num": 7,
    "trial_length": 10,
    "click_num": 8,
    "RT": 1024,
    "action": 0,
    "reward": 3.7
  },
  {
    "phase": "TASK",
    "condition": "Cond1",
    "trial_num": 7,
    "trial_length": 10,
    "click_num": 9,
    "RT": 1360,
    "action": 0,
    "reward": 3.7
  },
  {
    "phase": "TASK",
    "condition": "Cond1",
    "trial_num": 7,
    "trial_length": 10,
    "click_num": 10,
    "RT": 3184,
    "action": 0,
    "reward": 3.7
  },
  {
    "phase": "TASK",
    "condition": "Cond1",
    "trial_num": 8,
    "trial_length": 9,
    "click_num": 1,
    "RT": 2124,
    "action": 1,
    "reward": 2.4
  },
  {
    "phase": "TASK",
    "condition": "Cond1",
    "trial_num": 8,
    "trial_length": 9,
    "click_num": 2,
    "RT": 1905,
    "action": 1,
    "reward": 2.8
  },
  {
    "phase": "TASK",
    "condition": "Cond1",
    "trial_num": 8,
    "trial_length": 9,
    "click_num": 3,
    "RT": 1479,
    "action": 1,
    "reward": 3.1
  },
  {
    "phase": "TASK",
    "condition": "Cond1",
    "trial_num": 8,
    "trial_length": 9,
    "click_num": 4,
    "RT": 2200,
    "action": 1,
    "reward": 3.3
  },
  {
    "phase": "TASK",
    "condition": "Cond1",
    "trial_num": 8,
    "trial_length": 9,
    "click_num": 5,
    "RT": 1720,
    "action": 1,
    "reward": 3.2
  },
  {
    "phase": "TASK",
    "condition": "Cond1",
    "trial_num": 8,
    "trial_length": 9,
    "click_num": 6,
    "RT": 1640,
    "action": 1,
    "reward": 3.8
  },
  {
    "phase": "TASK",
    "condition": "Cond1",
    "trial_num": 8,
    "trial_length": 9,
    "click_num": 7,
    "RT": 2144,
    "action": 0,
    "reward": 3.8
  },
  {
    "phase": "TASK",
    "condition": "Cond1",
    "trial_num": 8,
    "trial_length": 9,
    "click_num": 8,
    "RT": 1280,
    "action": 0,
    "reward": 3.8
  },
  {
    "phase": "TASK",
    "condition": "Cond1",
    "trial_num": 8,
    "trial_length": 9,
    "click_num": 9,
    "RT": 1072,
    "action": 0,
    "reward": 3.8
  },
  {
    "phase": "TASK",
    "condition": "Cond1",
    "trial_num": 9,
    "trial_length": 5,
    "click_num": 1,
    "RT": 1335,
    "action": 1,
    "reward": 3.8
  },
  {
    "phase": "TASK",
    "condition": "Cond1",
    "trial_num": 9,
    "trial_length": 5,
    "click_num": 2,
    "RT": 1945,
    "action": 0,
    "reward": 3.8
  },
  {
    "phase": "TASK",
    "condition": "Cond1",
    "trial_num": 9,
    "trial_length": 5,
    "click_num": 3,
    "RT": 1331,
    "action": 0,
    "reward": 3.8
  },
  {
    "phase": "TASK",
    "condition": "Cond1",
    "trial_num": 9,
    "trial_length": 5,
    "click_num": 4,
    "RT": 1998,
    "action": 0,
    "reward": 3.8
  },
  {
    "phase": "TASK",
    "condition": "Cond1",
    "trial_num": 9,
    "trial_length": 5,
    "click_num": 5,
    "RT": 1320,
    "action": 0,
    "reward": 3.8
  },
  {
    "phase": "TASK",
    "condition": "Cond1",
    "trial_num": 10,
    "trial_length": 10,
    "click_num": 1,
    "RT": 1568,
    "action": 1,
    "reward": 3.4
  },
  {
    "phase": "TASK",
    "condition": "Cond1",
    "trial_num": 10,
    "trial_length": 10,
    "click_num": 2,
    "RT": 1558,
    "action": 1,
    "reward": 3.6
  },
  {
    "phase": "TASK",
    "condition": "Cond1",
    "trial_num": 10,
    "trial_length": 10,
    "click_num": 3,
    "RT": 2104,
    "action": 1,
    "reward": 3.8
  },
  {
    "phase": "TASK",
    "condition": "Cond1",
    "trial_num": 10,
    "trial_length": 10,
    "click_num": 4,
    "RT": 2905,
    "action": 1,
    "reward": 3
  },
  {
    "phase": "TASK",
    "condition": "Cond1",
    "trial_num": 10,
    "trial_length": 10,
    "click_num": 5,
    "RT": 1519,
    "action": 0,
    "reward": 3.8
  },
  {
    "phase": "TASK",
    "condition": "Cond1",
    "trial_num": 10,
    "trial_length": 10,
    "click_num": 6,
    "RT": 1768,
    "action": 0,
    "reward": 3.8
  },
  {
    "phase": "TASK",
    "condition": "Cond1",
    "trial_num": 10,
    "trial_length": 10,
    "click_num": 7,
    "RT": 2232,
    "action": 1,
    "reward": 3.4
  },
  {
    "phase": "TASK",
    "condition": "Cond1",
    "trial_num": 10,
    "trial_length": 10,
    "click_num": 8,
    "RT": 1311,
    "action": 0,
    "reward": 3.8
  },
  {
    "phase": "TASK",
    "condition": "Cond1",
    "trial_num": 10,
    "trial_length": 10,
    "click_num": 9,
    "RT": 1017,
    "action": 0,
    "reward": 3.8
  },
  {
    "phase": "TASK",
    "condition": "Cond1",
    "trial_num": 10,
    "trial_length": 10,
    "click_num": 10,
    "RT": 1800,
    "action": 0,
    "reward": 3.8
  },
  {
    "phase": "TASK",
    "condition": "Cond1",
    "trial_num": 11,
    "trial_length": 5,
    "click_num": 1,
    "RT": 3470,
    "action": 1,
    "reward": 3.6
  },
  {
    "phase": "TASK",
    "condition": "Cond1",
    "trial_num": 11,
    "trial_length": 5,
    "click_num": 2,
    "RT": 1935,
    "action": 1,
    "reward": 2.6
  },
  {
    "phase": "TASK",
    "condition": "Cond1",
    "trial_num": 11,
    "trial_length": 5,
    "click_num": 3,
    "RT": 2512,
    "action": 1,
    "reward": 2.9
  },
  {
    "phase": "TASK",
    "condition": "Cond1",
    "trial_num": 11,
    "trial_length": 5,
    "click_num": 4,
    "RT": 2224,
    "action": 0,
    "reward": 3.6
  },
  {
    "phase": "TASK",
    "condition": "Cond1",
    "trial_num": 11,
    "trial_length": 5,
    "click_num": 5,
    "RT": 1256,
    "action": 0,
    "reward": 3.6
  },
  {
    "phase": "TASK",
    "condition": "Cond1",
    "trial_num": 12,
    "trial_length": 9,
    "click_num": 1,
    "RT": 2121,
    "action": 1,
    "reward": 3.1
  },
  {
    "phase": "TASK",
    "condition": "Cond1",
    "trial_num": 12,
    "trial_length": 9,
    "click_num": 2,
    "RT": 1375,
    "action": 1,
    "reward": 2.4
  },
  {
    "phase": "TASK",
    "condition": "Cond1",
    "trial_num": 12,
    "trial_length": 9,
    "click_num": 3,
    "RT": 1224,
    "action": 1,
    "reward": 2.4
  },
  {
    "phase": "TASK",
    "condition": "Cond1",
    "trial_num": 12,
    "trial_length": 9,
    "click_num": 4,
    "RT": 1286,
    "action": 1,
    "reward": 3.2
  },
  {
    "phase": "TASK",
    "condition": "Cond1",
    "trial_num": 12,
    "trial_length": 9,
    "click_num": 5,
    "RT": 3226,
    "action": 1,
    "reward": 3.2
  },
  {
    "phase": "TASK",
    "condition": "Cond1",
    "trial_num": 12,
    "trial_length": 9,
    "click_num": 6,
    "RT": 2424,
    "action": 1,
    "reward": 2.7
  },
  {
    "phase": "TASK",
    "condition": "Cond1",
    "trial_num": 12,
    "trial_length": 9,
    "click_num": 7,
    "RT": 1248,
    "action": 0,
    "reward": 3.2
  },
  {
    "phase": "TASK",
    "condition": "Cond1",
    "trial_num": 12,
    "trial_length": 9,
    "click_num": 8,
    "RT": 999,
    "action": 0,
    "reward": 3.2
  },
  {
    "phase": "TASK",
    "condition": "Cond1",
    "trial_num": 12,
    "trial_length": 9,
    "click_num": 9,
    "RT": 961,
    "action": 0,
    "reward": 3.2
  },
  {
    "phase": "TASK",
    "condition": "Cond1",
    "trial_num": 13,
    "trial_length": 5,
    "click_num": 1,
    "RT": 1695,
    "action": 1,
    "reward": 3.8
  },
  {
    "phase": "TASK",
    "condition": "Cond1",
    "trial_num": 13,
    "trial_length": 5,
    "click_num": 2,
    "RT": 2375,
    "action": 0,
    "reward": 3.8
  },
  {
    "phase": "TASK",
    "condition": "Cond1",
    "trial_num": 13,
    "trial_length": 5,
    "click_num": 3,
    "RT": 1161,
    "action": 0,
    "reward": 3.8
  },
  {
    "phase": "TASK",
    "condition": "Cond1",
    "trial_num": 13,
    "trial_length": 5,
    "click_num": 4,
    "RT": 1983,
    "action": 0,
    "reward": 3.8
  },
  {
    "phase": "TASK",
    "condition": "Cond1",
    "trial_num": 13,
    "trial_length": 5,
    "click_num": 5,
    "RT": 1088,
    "action": 0,
    "reward": 3.8
  },
  {
    "phase": "TASK",
    "condition": "Cond1",
    "trial_num": 14,
    "trial_length": 10,
    "click_num": 1,
    "RT": 1632,
    "action": 1,
    "reward": 2.7
  },
  {
    "phase": "TASK",
    "condition": "Cond1",
    "trial_num": 14,
    "trial_length": 10,
    "click_num": 2,
    "RT": 1800,
    "action": 1,
    "reward": 3.5
  },
  {
    "phase": "TASK",
    "condition": "Cond1",
    "trial_num": 14,
    "trial_length": 10,
    "click_num": 3,
    "RT": 1391,
    "action": 1,
    "reward": 2
  },
  {
    "phase": "TASK",
    "condition": "Cond1",
    "trial_num": 14,
    "trial_length": 10,
    "click_num": 4,
    "RT": 1593,
    "action": 1,
    "reward": 3.1
  },
  {
    "phase": "TASK",
    "condition": "Cond1",
    "trial_num": 14,
    "trial_length": 10,
    "click_num": 5,
    "RT": 2791,
    "action": 1,
    "reward": 3
  },
  {
    "phase": "TASK",
    "condition": "Cond1",
    "trial_num": 14,
    "trial_length": 10,
    "click_num": 6,
    "RT": 1329,
    "action": 0,
    "reward": 3.5
  },
  {
    "phase": "TASK",
    "condition": "Cond1",
    "trial_num": 14,
    "trial_length": 10,
    "click_num": 7,
    "RT": 1536,
    "action": 1,
    "reward": 3.3
  },
  {
    "phase": "TASK",
    "condition": "Cond1",
    "trial_num": 14,
    "trial_length": 10,
    "click_num": 8,
    "RT": 1639,
    "action": 0,
    "reward": 3.5
  },
  {
    "phase": "TASK",
    "condition": "Cond1",
    "trial_num": 14,
    "trial_length": 10,
    "click_num": 9,
    "RT": 1288,
    "action": 1,
    "reward": 3.2
  },
  {
    "phase": "TASK",
    "condition": "Cond1",
    "trial_num": 14,
    "trial_length": 10,
    "click_num": 10,
    "RT": 1504,
    "action": 0,
    "reward": 3.5
  },
  {
    "phase": "TASK",
    "condition": "Cond1",
    "trial_num": 15,
    "trial_length": 7,
    "click_num": 1,
    "RT": 1632,
    "action": 1,
    "reward": 2.8
  },
  {
    "phase": "TASK",
    "condition": "Cond1",
    "trial_num": 15,
    "trial_length": 7,
    "click_num": 2,
    "RT": 1463,
    "action": 1,
    "reward": 2.4
  },
  {
    "phase": "TASK",
    "condition": "Cond1",
    "trial_num": 15,
    "trial_length": 7,
    "click_num": 3,
    "RT": 1152,
    "action": 1,
    "reward": 3.6
  },
  {
    "phase": "TASK",
    "condition": "Cond1",
    "trial_num": 15,
    "trial_length": 7,
    "click_num": 4,
    "RT": 1248,
    "action": 1,
    "reward": 2.8
  },
  {
    "phase": "TASK",
    "condition": "Cond1",
    "trial_num": 15,
    "trial_length": 7,
    "click_num": 5,
    "RT": 1760,
    "action": 1,
    "reward": 2.3
  },
  {
    "phase": "TASK",
    "condition": "Cond1",
    "trial_num": 15,
    "trial_length": 7,
    "click_num": 6,
    "RT": 2848,
    "action": 0,
    "reward": 3.6
  },
  {
    "phase": "TASK",
    "condition": "Cond1",
    "trial_num": 15,
    "trial_length": 7,
    "click_num": 7,
    "RT": 1312,
    "action": 0,
    "reward": 3.6
  },
  {
    "phase": "TASK",
    "condition": "Cond1",
    "trial_num": 16,
    "trial_length": 7,
    "click_num": 1,
    "RT": 2183,
    "action": 1,
    "reward": 2.9
  },
  {
    "phase": "TASK",
    "condition": "Cond1",
    "trial_num": 16,
    "trial_length": 7,
    "click_num": 2,
    "RT": 1928,
    "action": 1,
    "reward": 2.6
  },
  {
    "phase": "TASK",
    "condition": "Cond1",
    "trial_num": 16,
    "trial_length": 7,
    "click_num": 3,
    "RT": 1734,
    "action": 1,
    "reward": 3.5
  },
  {
    "phase": "TASK",
    "condition": "Cond1",
    "trial_num": 16,
    "trial_length": 7,
    "click_num": 4,
    "RT": 2377,
    "action": 0,
    "reward": 3.5
  },
  {
    "phase": "TASK",
    "condition": "Cond1",
    "trial_num": 16,
    "trial_length": 7,
    "click_num": 5,
    "RT": 1609,
    "action": 0,
    "reward": 3.5
  },
  {
    "phase": "TASK",
    "condition": "Cond1",
    "trial_num": 16,
    "trial_length": 7,
    "click_num": 6,
    "RT": 1838,
    "action": 1,
    "reward": 2.6
  },
  {
    "phase": "TASK",
    "condition": "Cond1",
    "trial_num": 16,
    "trial_length": 7,
    "click_num": 7,
    "RT": 1513,
    "action": 0,
    "reward": 3.5
  },
  {
    "phase": "TASK",
    "condition": "Cond1",
    "trial_num": 17,
    "trial_length": 7,
    "click_num": 1,
    "RT": 1831,
    "action": 1,
    "reward": 2.8
  },
  {
    "phase": "TASK",
    "condition": "Cond1",
    "trial_num": 17,
    "trial_length": 7,
    "click_num": 2,
    "RT": 1578,
    "action": 1,
    "reward": 3
  },
  {
    "phase": "TASK",
    "condition": "Cond1",
    "trial_num": 17,
    "trial_length": 7,
    "click_num": 3,
    "RT": 1382,
    "action": 1,
    "reward": 2.3
  },
  {
    "phase": "TASK",
    "condition": "Cond1",
    "trial_num": 17,
    "trial_length": 7,
    "click_num": 4,
    "RT": 1537,
    "action": 1,
    "reward": 2.7
  },
  {
    "phase": "TASK",
    "condition": "Cond1",
    "trial_num": 17,
    "trial_length": 7,
    "click_num": 5,
    "RT": 2104,
    "action": 0,
    "reward": 3
  },
  {
    "phase": "TASK",
    "condition": "Cond1",
    "trial_num": 17,
    "trial_length": 7,
    "click_num": 6,
    "RT": 907,
    "action": 0,
    "reward": 3
  },
  {
    "phase": "TASK",
    "condition": "Cond1",
    "trial_num": 17,
    "trial_length": 7,
    "click_num": 7,
    "RT": 1421,
    "action": 0,
    "reward": 3
  },
  {
    "phase": "TASK",
    "condition": "Cond1",
    "trial_num": 18,
    "trial_length": 9,
    "click_num": 1,
    "RT": 1487,
    "action": 1,
    "reward": 3.9
  },
  {
    "phase": "TASK",
    "condition": "Cond1",
    "trial_num": 18,
    "trial_length": 9,
    "click_num": 2,
    "RT": 2568,
    "action": 0,
    "reward": 3.9
  },
  {
    "phase": "TASK",
    "condition": "Cond1",
    "trial_num": 18,
    "trial_length": 9,
    "click_num": 3,
    "RT": 800,
    "action": 0,
    "reward": 3.9
  },
  {
    "phase": "TASK",
    "condition": "Cond1",
    "trial_num": 18,
    "trial_length": 9,
    "click_num": 4,
    "RT": 842,
    "action": 0,
    "reward": 3.9
  },
  {
    "phase": "TASK",
    "condition": "Cond1",
    "trial_num": 18,
    "trial_length": 9,
    "click_num": 5,
    "RT": 806,
    "action": 0,
    "reward": 3.9
  },
  {
    "phase": "TASK",
    "condition": "Cond1",
    "trial_num": 18,
    "trial_length": 9,
    "click_num": 6,
    "RT": 1023,
    "action": 0,
    "reward": 3.9
  },
  {
    "phase": "TASK",
    "condition": "Cond1",
    "trial_num": 18,
    "trial_length": 9,
    "click_num": 7,
    "RT": 856,
    "action": 0,
    "reward": 3.9
  },
  {
    "phase": "TASK",
    "condition": "Cond1",
    "trial_num": 18,
    "trial_length": 9,
    "click_num": 8,
    "RT": 819,
    "action": 0,
    "reward": 3.9
  },
  {
    "phase": "TASK",
    "condition": "Cond1",
    "trial_num": 18,
    "trial_length": 9,
    "click_num": 9,
    "RT": 790,
    "action": 0,
    "reward": 3.9
  },
  {
    "phase": "TASK",
    "condition": "Cond1",
    "trial_num": 19,
    "trial_length": 6,
    "click_num": 1,
    "RT": 1518,
    "action": 1,
    "reward": 2.6
  },
  {
    "phase": "TASK",
    "condition": "Cond1",
    "trial_num": 19,
    "trial_length": 6,
    "click_num": 2,
    "RT": 1671,
    "action": 1,
    "reward": 3.3
  },
  {
    "phase": "TASK",
    "condition": "Cond1",
    "trial_num": 19,
    "trial_length": 6,
    "click_num": 3,
    "RT": 1636,
    "action": 1,
    "reward": 3.1
  },
  {
    "phase": "TASK",
    "condition": "Cond1",
    "trial_num": 19,
    "trial_length": 6,
    "click_num": 4,
    "RT": 1613,
    "action": 0,
    "reward": 3.3
  },
  {
    "phase": "TASK",
    "condition": "Cond1",
    "trial_num": 19,
    "trial_length": 6,
    "click_num": 5,
    "RT": 2509,
    "action": 0,
    "reward": 3.3
  },
  {
    "phase": "TASK",
    "condition": "Cond1",
    "trial_num": 19,
    "trial_length": 6,
    "click_num": 6,
    "RT": 1266,
    "action": 1,
    "reward": 3.1
  },
  {
    "phase": "TASK",
    "condition": "Cond1",
    "trial_num": 20,
    "trial_length": 9,
    "click_num": 1,
    "RT": 1429,
    "action": 1,
    "reward": 2.7
  },
  {
    "phase": "TASK",
    "condition": "Cond1",
    "trial_num": 20,
    "trial_length": 9,
    "click_num": 2,
    "RT": 1403,
    "action": 1,
    "reward": 3.7
  },
  {
    "phase": "TASK",
    "condition": "Cond1",
    "trial_num": 20,
    "trial_length": 9,
    "click_num": 3,
    "RT": 1778,
    "action": 1,
    "reward": 2.7
  },
  {
    "phase": "TASK",
    "condition": "Cond1",
    "trial_num": 20,
    "trial_length": 9,
    "click_num": 4,
    "RT": 2177,
    "action": 0,
    "reward": 3.7
  },
  {
    "phase": "TASK",
    "condition": "Cond1",
    "trial_num": 20,
    "trial_length": 9,
    "click_num": 5,
    "RT": 1064,
    "action": 0,
    "reward": 3.7
  },
  {
    "phase": "TASK",
    "condition": "Cond1",
    "trial_num": 20,
    "trial_length": 9,
    "click_num": 6,
    "RT": 823,
    "action": 0,
    "reward": 3.7
  },
  {
    "phase": "TASK",
    "condition": "Cond1",
    "trial_num": 20,
    "trial_length": 9,
    "click_num": 7,
    "RT": 752,
    "action": 0,
    "reward": 3.7
  },
  {
    "phase": "TASK",
    "condition": "Cond1",
    "trial_num": 20,
    "trial_length": 9,
    "click_num": 8,
    "RT": 831,
    "action": 0,
    "reward": 3.7
  },
  {
    "phase": "TASK",
    "condition": "Cond1",
    "trial_num": 20,
    "trial_length": 9,
    "click_num": 9,
    "RT": 809,
    "action": 0,
    "reward": 3.7
  },
  {
    "phase": "TASK",
    "condition": "Cond1",
    "trial_num": 21,
    "trial_length": 6,
    "click_num": 1,
    "RT": 1734,
    "action": 1,
    "reward": 3.4
  },
  {
    "phase": "TASK",
    "condition": "Cond1",
    "trial_num": 21,
    "trial_length": 6,
    "click_num": 2,
    "RT": 1671,
    "action": 1,
    "reward": 3.1
  },
  {
    "phase": "TASK",
    "condition": "Cond1",
    "trial_num": 21,
    "trial_length": 6,
    "click_num": 3,
    "RT": 1419,
    "action": 1,
    "reward": 2.9
  },
  {
    "phase": "TASK",
    "condition": "Cond1",
    "trial_num": 21,
    "trial_length": 6,
    "click_num": 4,
    "RT": 1342,
    "action": 0,
    "reward": 3.4
  },
  {
    "phase": "TASK",
    "condition": "Cond1",
    "trial_num": 21,
    "trial_length": 6,
    "click_num": 5,
    "RT": 824,
    "action": 0,
    "reward": 3.4
  },
  {
    "phase": "TASK",
    "condition": "Cond1",
    "trial_num": 21,
    "trial_length": 6,
    "click_num": 6,
    "RT": 744,
    "action": 0,
    "reward": 3.4
  },
  {
    "phase": "TASK",
    "condition": "Cond1",
    "trial_num": 22,
    "trial_length": 6,
    "click_num": 1,
    "RT": 5032,
    "action": 1,
    "reward": 2.4
  },
  {
    "phase": "TASK",
    "condition": "Cond1",
    "trial_num": 22,
    "trial_length": 6,
    "click_num": 2,
    "RT": 1813,
    "action": 1,
    "reward": 1.6
  },
  {
    "phase": "TASK",
    "condition": "Cond1",
    "trial_num": 22,
    "trial_length": 6,
    "click_num": 3,
    "RT": 1600,
    "action": 1,
    "reward": 2.9
  },
  {
    "phase": "TASK",
    "condition": "Cond1",
    "trial_num": 22,
    "trial_length": 6,
    "click_num": 4,
    "RT": 1776,
    "action": 1,
    "reward": 2.7
  },
  {
    "phase": "TASK",
    "condition": "Cond1",
    "trial_num": 22,
    "trial_length": 6,
    "click_num": 5,
    "RT": 2479,
    "action": 0,
    "reward": 2.9
  },
  {
    "phase": "TASK",
    "condition": "Cond1",
    "trial_num": 22,
    "trial_length": 6,
    "click_num": 6,
    "RT": 1856,
    "action": 0,
    "reward": 2.9
  },
  {
    "phase": "TASK",
    "condition": "Cond1",
    "trial_num": 23,
    "trial_length": 7,
    "click_num": 1,
    "RT": 1816,
    "action": 1,
    "reward": 4.3
  },
  {
    "phase": "TASK",
    "condition": "Cond1",
    "trial_num": 23,
    "trial_length": 7,
    "click_num": 2,
    "RT": 3343,
    "action": 0,
    "reward": 4.3
  },
  {
    "phase": "TASK",
    "condition": "Cond1",
    "trial_num": 23,
    "trial_length": 7,
    "click_num": 3,
    "RT": 1120,
    "action": 0,
    "reward": 4.3
  },
  {
    "phase": "TASK",
    "condition": "Cond1",
    "trial_num": 23,
    "trial_length": 7,
    "click_num": 4,
    "RT": 904,
    "action": 0,
    "reward": 4.3
  },
  {
    "phase": "TASK",
    "condition": "Cond1",
    "trial_num": 23,
    "trial_length": 7,
    "click_num": 5,
    "RT": 832,
    "action": 0,
    "reward": 4.3
  },
  {
    "phase": "TASK",
    "condition": "Cond1",
    "trial_num": 23,
    "trial_length": 7,
    "click_num": 6,
    "RT": 1171,
    "action": 0,
    "reward": 4.3
  },
  {
    "phase": "TASK",
    "condition": "Cond1",
    "trial_num": 23,
    "trial_length": 7,
    "click_num": 7,
    "RT": 902,
    "action": 0,
    "reward": 4.3
  },
  {
    "phase": "TASK",
    "condition": "Cond1",
    "trial_num": 24,
    "trial_length": 5,
    "click_num": 1,
    "RT": 2166,
    "action": 1,
    "reward": 3.7
  },
  {
    "phase": "TASK",
    "condition": "Cond1",
    "trial_num": 24,
    "trial_length": 5,
    "click_num": 2,
    "RT": 1776,
    "action": 0,
    "reward": 3.7
  },
  {
    "phase": "TASK",
    "condition": "Cond1",
    "trial_num": 24,
    "trial_length": 5,
    "click_num": 3,
    "RT": 720,
    "action": 0,
    "reward": 3.7
  },
  {
    "phase": "TASK",
    "condition": "Cond1",
    "trial_num": 24,
    "trial_length": 5,
    "click_num": 4,
    "RT": 688,
    "action": 0,
    "reward": 3.7
  },
  {
    "phase": "TASK",
    "condition": "Cond1",
    "trial_num": 24,
    "trial_length": 5,
    "click_num": 5,
    "RT": 688,
    "action": 0,
    "reward": 3.7
  },
  {
    "phase": "TASK",
    "condition": "Cond1",
    "trial_num": 25,
    "trial_length": 5,
    "click_num": 1,
    "RT": 1444,
    "action": 1,
    "reward": 2.6
  },
  {
    "phase": "TASK",
    "condition": "Cond1",
    "trial_num": 25,
    "trial_length": 5,
    "click_num": 2,
    "RT": 1568,
    "action": 1,
    "reward": 2.6
  },
  {
    "phase": "TASK",
    "condition": "Cond1",
    "trial_num": 25,
    "trial_length": 5,
    "click_num": 3,
    "RT": 1104,
    "action": 1,
    "reward": 3.7
  },
  {
    "phase": "TASK",
    "condition": "Cond1",
    "trial_num": 25,
    "trial_length": 5,
    "click_num": 4,
    "RT": 2264,
    "action": 0,
    "reward": 3.7
  },
  {
    "phase": "TASK",
    "condition": "Cond1",
    "trial_num": 25,
    "trial_length": 5,
    "click_num": 5,
    "RT": 1031,
    "action": 0,
    "reward": 3.7
  },
  {
    "phase": "TASK",
    "condition": "Cond1",
    "trial_num": 26,
    "trial_length": 7,
    "click_num": 1,
    "RT": 1220,
    "action": 1,
    "reward": 3.8
  },
  {
    "phase": "TASK",
    "condition": "Cond1",
    "trial_num": 26,
    "trial_length": 7,
    "click_num": 2,
    "RT": 1937,
    "action": 0,
    "reward": 3.8
  },
  {
    "phase": "TASK",
    "condition": "Cond1",
    "trial_num": 26,
    "trial_length": 7,
    "click_num": 3,
    "RT": 808,
    "action": 0,
    "reward": 3.8
  },
  {
    "phase": "TASK",
    "condition": "Cond1",
    "trial_num": 26,
    "trial_length": 7,
    "click_num": 4,
    "RT": 728,
    "action": 0,
    "reward": 3.8
  },
  {
    "phase": "TASK",
    "condition": "Cond1",
    "trial_num": 26,
    "trial_length": 7,
    "click_num": 5,
    "RT": 728,
    "action": 0,
    "reward": 3.8
  },
  {
    "phase": "TASK",
    "condition": "Cond1",
    "trial_num": 26,
    "trial_length": 7,
    "click_num": 6,
    "RT": 800,
    "action": 0,
    "reward": 3.8
  },
  {
    "phase": "TASK",
    "condition": "Cond1",
    "trial_num": 26,
    "trial_length": 7,
    "click_num": 7,
    "RT": 1040,
    "action": 0,
    "reward": 3.8
  },
  {
    "phase": "TASK",
    "condition": "Cond1",
    "trial_num": 27,
    "trial_length": 10,
    "click_num": 1,
    "RT": 1750,
    "action": 1,
    "reward": 3
  },
  {
    "phase": "TASK",
    "condition": "Cond1",
    "trial_num": 27,
    "trial_length": 10,
    "click_num": 2,
    "RT": 1751,
    "action": 1,
    "reward": 2.9
  },
  {
    "phase": "TASK",
    "condition": "Cond1",
    "trial_num": 27,
    "trial_length": 10,
    "click_num": 3,
    "RT": 1265,
    "action": 1,
    "reward": 2.6
  },
  {
    "phase": "TASK",
    "condition": "Cond1",
    "trial_num": 27,
    "trial_length": 10,
    "click_num": 4,
    "RT": 1184,
    "action": 1,
    "reward": 2.7
  },
  {
    "phase": "TASK",
    "condition": "Cond1",
    "trial_num": 27,
    "trial_length": 10,
    "click_num": 5,
    "RT": 1088,
    "action": 1,
    "reward": 2.7
  },
  {
    "phase": "TASK",
    "condition": "Cond1",
    "trial_num": 27,
    "trial_length": 10,
    "click_num": 6,
    "RT": 1104,
    "action": 1,
    "reward": 2.7
  },
  {
    "phase": "TASK",
    "condition": "Cond1",
    "trial_num": 27,
    "trial_length": 10,
    "click_num": 7,
    "RT": 1463,
    "action": 0,
    "reward": 3
  },
  {
    "phase": "TASK",
    "condition": "Cond1",
    "trial_num": 27,
    "trial_length": 10,
    "click_num": 8,
    "RT": 1145,
    "action": 1,
    "reward": 2.6
  },
  {
    "phase": "TASK",
    "condition": "Cond1",
    "trial_num": 27,
    "trial_length": 10,
    "click_num": 9,
    "RT": 1040,
    "action": 0,
    "reward": 3
  },
  {
    "phase": "TASK",
    "condition": "Cond1",
    "trial_num": 27,
    "trial_length": 10,
    "click_num": 10,
    "RT": 1303,
    "action": 0,
    "reward": 3
  },
  {
    "phase": "TASK",
    "condition": "Cond1",
    "trial_num": 28,
    "trial_length": 7,
    "click_num": 1,
    "RT": 1321,
    "action": 1,
    "reward": 3.1
  },
  {
    "phase": "TASK",
    "condition": "Cond1",
    "trial_num": 28,
    "trial_length": 7,
    "click_num": 2,
    "RT": 1380,
    "action": 1,
    "reward": 3.5
  },
  {
    "phase": "TASK",
    "condition": "Cond1",
    "trial_num": 28,
    "trial_length": 7,
    "click_num": 3,
    "RT": 1600,
    "action": 1,
    "reward": 3
  },
  {
    "phase": "TASK",
    "condition": "Cond1",
    "trial_num": 28,
    "trial_length": 7,
    "click_num": 4,
    "RT": 1176,
    "action": 0,
    "reward": 3.5
  },
  {
    "phase": "TASK",
    "condition": "Cond1",
    "trial_num": 28,
    "trial_length": 7,
    "click_num": 5,
    "RT": 771,
    "action": 1,
    "reward": 3.2
  },
  {
    "phase": "TASK",
    "condition": "Cond1",
    "trial_num": 28,
    "trial_length": 7,
    "click_num": 6,
    "RT": 1222,
    "action": 1,
    "reward": 2.6
  },
  {
    "phase": "TASK",
    "condition": "Cond1",
    "trial_num": 28,
    "trial_length": 7,
    "click_num": 7,
    "RT": 751,
    "action": 0,
    "reward": 3.5
  },
  {
    "phase": "TASK",
    "condition": "Cond1",
    "trial_num": 29,
    "trial_length": 8,
    "click_num": 1,
    "RT": 2625,
    "action": 1,
    "reward": 3.9
  },
  {
    "phase": "TASK",
    "condition": "Cond1",
    "trial_num": 29,
    "trial_length": 8,
    "click_num": 2,
    "RT": 1957,
    "action": 0,
    "reward": 3.9
  },
  {
    "phase": "TASK",
    "condition": "Cond1",
    "trial_num": 29,
    "trial_length": 8,
    "click_num": 3,
    "RT": 1000,
    "action": 0,
    "reward": 3.9
  },
  {
    "phase": "TASK",
    "condition": "Cond1",
    "trial_num": 29,
    "trial_length": 8,
    "click_num": 4,
    "RT": 737,
    "action": 0,
    "reward": 3.9
  },
  {
    "phase": "TASK",
    "condition": "Cond1",
    "trial_num": 29,
    "trial_length": 8,
    "click_num": 5,
    "RT": 695,
    "action": 0,
    "reward": 3.9
  },
  {
    "phase": "TASK",
    "condition": "Cond1",
    "trial_num": 29,
    "trial_length": 8,
    "click_num": 6,
    "RT": 752,
    "action": 0,
    "reward": 3.9
  },
  {
    "phase": "TASK",
    "condition": "Cond1",
    "trial_num": 29,
    "trial_length": 8,
    "click_num": 7,
    "RT": 712,
    "action": 0,
    "reward": 3.9
  },
  {
    "phase": "TASK",
    "condition": "Cond1",
    "trial_num": 29,
    "trial_length": 8,
    "click_num": 8,
    "RT": 1568,
    "action": 0,
    "reward": 3.9
  },
  {
    "phase": "TASK",
    "condition": "Cond1",
    "trial_num": 30,
    "trial_length": 6,
    "click_num": 1,
    "RT": 1510,
    "action": 1,
    "reward": 3.2
  },
  {
    "phase": "TASK",
    "condition": "Cond1",
    "trial_num": 30,
    "trial_length": 6,
    "click_num": 2,
    "RT": 4777,
    "action": 1,
    "reward": 2.6
  },
  {
    "phase": "TASK",
    "condition": "Cond1",
    "trial_num": 30,
    "trial_length": 6,
    "click_num": 3,
    "RT": 6199,
    "action": 0,
    "reward": 3.2
  },
  {
    "phase": "TASK",
    "condition": "Cond1",
    "trial_num": 30,
    "trial_length": 6,
    "click_num": 4,
    "RT": 19895,
    "action": 0,
    "reward": 3.2
  },
  {
    "phase": "TASK",
    "condition": "Cond1",
    "trial_num": 30,
    "trial_length": 6,
    "click_num": 5,
    "RT": 1145,
    "action": 1,
    "reward": 3.1
  },
  {
    "phase": "TASK",
    "condition": "Cond1",
    "trial_num": 30,
    "trial_length": 6,
    "click_num": 6,
    "RT": 1495,
    "action": 0,
    "reward": 3.2
  },
  {
    "phase": "TASK",
    "condition": "Cond1",
    "trial_num": 31,
    "trial_length": 10,
    "click_num": 1,
    "RT": 2260,
    "action": 1,
    "reward": 3.3
  },
  {
    "phase": "TASK",
    "condition": "Cond1",
    "trial_num": 31,
    "trial_length": 10,
    "click_num": 2,
    "RT": 2935,
    "action": 1,
    "reward": 3.2
  },
  {
    "phase": "TASK",
    "condition": "Cond1",
    "trial_num": 31,
    "trial_length": 10,
    "click_num": 3,
    "RT": 1497,
    "action": 1,
    "reward": 2.6
  },
  {
    "phase": "TASK",
    "condition": "Cond1",
    "trial_num": 31,
    "trial_length": 10,
    "click_num": 4,
    "RT": 2991,
    "action": 1,
    "reward": 2.6
  },
  {
    "phase": "TASK",
    "condition": "Cond1",
    "trial_num": 31,
    "trial_length": 10,
    "click_num": 5,
    "RT": 1272,
    "action": 0,
    "reward": 3.3
  },
  {
    "phase": "TASK",
    "condition": "Cond1",
    "trial_num": 31,
    "trial_length": 10,
    "click_num": 6,
    "RT": 929,
    "action": 0,
    "reward": 3.3
  },
  {
    "phase": "TASK",
    "condition": "Cond1",
    "trial_num": 31,
    "trial_length": 10,
    "click_num": 7,
    "RT": 855,
    "action": 0,
    "reward": 3.3
  },
  {
    "phase": "TASK",
    "condition": "Cond1",
    "trial_num": 31,
    "trial_length": 10,
    "click_num": 8,
    "RT": 817,
    "action": 0,
    "reward": 3.3
  },
  {
    "phase": "TASK",
    "condition": "Cond1",
    "trial_num": 31,
    "trial_length": 10,
    "click_num": 9,
    "RT": 727,
    "action": 0,
    "reward": 3.3
  },
  {
    "phase": "TASK",
    "condition": "Cond1",
    "trial_num": 31,
    "trial_length": 10,
    "click_num": 10,
    "RT": 760,
    "action": 0,
    "reward": 3.3
  },
  {
    "phase": "TASK",
    "condition": "Cond1",
    "trial_num": 32,
    "trial_length": 6,
    "click_num": 1,
    "RT": 1720,
    "action": 1,
    "reward": 3.7
  },
  {
    "phase": "TASK",
    "condition": "Cond1",
    "trial_num": 32,
    "trial_length": 6,
    "click_num": 2,
    "RT": 1441,
    "action": 0,
    "reward": 3.7
  },
  {
    "phase": "TASK",
    "condition": "Cond1",
    "trial_num": 32,
    "trial_length": 6,
    "click_num": 3,
    "RT": 702,
    "action": 0,
    "reward": 3.7
  },
  {
    "phase": "TASK",
    "condition": "Cond1",
    "trial_num": 32,
    "trial_length": 6,
    "click_num": 4,
    "RT": 657,
    "action": 0,
    "reward": 3.7
  },
  {
    "phase": "TASK",
    "condition": "Cond1",
    "trial_num": 32,
    "trial_length": 6,
    "click_num": 5,
    "RT": 686,
    "action": 0,
    "reward": 3.7
  },
  {
    "phase": "TASK",
    "condition": "Cond1",
    "trial_num": 32,
    "trial_length": 6,
    "click_num": 6,
    "RT": 657,
    "action": 0,
    "reward": 3.7
  },
  {
    "phase": "TASK",
    "condition": "Cond1",
    "trial_num": 33,
    "trial_length": 8,
    "click_num": 1,
    "RT": 1447,
    "action": 1,
    "reward": 2.2
  },
  {
    "phase": "TASK",
    "condition": "Cond1",
    "trial_num": 33,
    "trial_length": 8,
    "click_num": 2,
    "RT": 2144,
    "action": 1,
    "reward": 3.9
  },
  {
    "phase": "TASK",
    "condition": "Cond1",
    "trial_num": 33,
    "trial_length": 8,
    "click_num": 3,
    "RT": 1672,
    "action": 0,
    "reward": 3.9
  },
  {
    "phase": "TASK",
    "condition": "Cond1",
    "trial_num": 33,
    "trial_length": 8,
    "click_num": 4,
    "RT": 736,
    "action": 0,
    "reward": 3.9
  },
  {
    "phase": "TASK",
    "condition": "Cond1",
    "trial_num": 33,
    "trial_length": 8,
    "click_num": 5,
    "RT": 647,
    "action": 0,
    "reward": 3.9
  },
  {
    "phase": "TASK",
    "condition": "Cond1",
    "trial_num": 33,
    "trial_length": 8,
    "click_num": 6,
    "RT": 785,
    "action": 0,
    "reward": 3.9
  },
  {
    "phase": "TASK",
    "condition": "Cond1",
    "trial_num": 33,
    "trial_length": 8,
    "click_num": 7,
    "RT": 711,
    "action": 0,
    "reward": 3.9
  },
  {
    "phase": "TASK",
    "condition": "Cond1",
    "trial_num": 33,
    "trial_length": 8,
    "click_num": 8,
    "RT": 681,
    "action": 0,
    "reward": 3.9
  },
  {
    "phase": "TASK",
    "condition": "Cond1",
    "trial_num": 34,
    "trial_length": 5,
    "click_num": 1,
    "RT": 1599,
    "action": 1,
    "reward": 2.9
  },
  {
    "phase": "TASK",
    "condition": "Cond1",
    "trial_num": 34,
    "trial_length": 5,
    "click_num": 2,
    "RT": 1944,
    "action": 1,
    "reward": 1.9
  },
  {
    "phase": "TASK",
    "condition": "Cond1",
    "trial_num": 34,
    "trial_length": 5,
    "click_num": 3,
    "RT": 2008,
    "action": 1,
    "reward": 2.2
  },
  {
    "phase": "TASK",
    "condition": "Cond1",
    "trial_num": 34,
    "trial_length": 5,
    "click_num": 4,
    "RT": 1819,
    "action": 0,
    "reward": 2.9
  },
  {
    "phase": "TASK",
    "condition": "Cond1",
    "trial_num": 34,
    "trial_length": 5,
    "click_num": 5,
    "RT": 1525,
    "action": 0,
    "reward": 2.9
  },
  {
    "phase": "TASK",
    "condition": "Cond1",
    "trial_num": 35,
    "trial_length": 8,
    "click_num": 1,
    "RT": 4208,
    "action": 1,
    "reward": 2.3
  },
  {
    "phase": "TASK",
    "condition": "Cond1",
    "trial_num": 35,
    "trial_length": 8,
    "click_num": 2,
    "RT": 1462,
    "action": 1,
    "reward": 3.2
  },
  {
    "phase": "TASK",
    "condition": "Cond1",
    "trial_num": 35,
    "trial_length": 8,
    "click_num": 3,
    "RT": 1217,
    "action": 1,
    "reward": 3.5
  },
  {
    "phase": "TASK",
    "condition": "Cond1",
    "trial_num": 35,
    "trial_length": 8,
    "click_num": 4,
    "RT": 1761,
    "action": 1,
    "reward": 4
  },
  {
    "phase": "TASK",
    "condition": "Cond1",
    "trial_num": 35,
    "trial_length": 8,
    "click_num": 5,
    "RT": 2159,
    "action": 1,
    "reward": 3.4
  },
  {
    "phase": "TASK",
    "condition": "Cond1",
    "trial_num": 35,
    "trial_length": 8,
    "click_num": 6,
    "RT": 1392,
    "action": 0,
    "reward": 4
  },
  {
    "phase": "TASK",
    "condition": "Cond1",
    "trial_num": 35,
    "trial_length": 8,
    "click_num": 7,
    "RT": 824,
    "action": 0,
    "reward": 4
  },
  {
    "phase": "TASK",
    "condition": "Cond1",
    "trial_num": 35,
    "trial_length": 8,
    "click_num": 8,
    "RT": 800,
    "action": 0,
    "reward": 4
  },
  {
    "phase": "TASK",
    "condition": "Cond1",
    "trial_num": 36,
    "trial_length": 10,
    "click_num": 1,
    "RT": 1743,
    "action": 1,
    "reward": 2.2
  },
  {
    "phase": "TASK",
    "condition": "Cond1",
    "trial_num": 36,
    "trial_length": 10,
    "click_num": 2,
    "RT": 1064,
    "action": 1,
    "reward": 1.9
  },
  {
    "phase": "TASK",
    "condition": "Cond1",
    "trial_num": 36,
    "trial_length": 10,
    "click_num": 3,
    "RT": 1280,
    "action": 1,
    "reward": 2.5
  },
  {
    "phase": "TASK",
    "condition": "Cond1",
    "trial_num": 36,
    "trial_length": 10,
    "click_num": 4,
    "RT": 1112,
    "action": 1,
    "reward": 2.5
  },
  {
    "phase": "TASK",
    "condition": "Cond1",
    "trial_num": 36,
    "trial_length": 10,
    "click_num": 5,
    "RT": 1223,
    "action": 1,
    "reward": 2
  },
  {
    "phase": "TASK",
    "condition": "Cond1",
    "trial_num": 36,
    "trial_length": 10,
    "click_num": 6,
    "RT": 1369,
    "action": 1,
    "reward": 3.3
  },
  {
    "phase": "TASK",
    "condition": "Cond1",
    "trial_num": 36,
    "trial_length": 10,
    "click_num": 7,
    "RT": 2359,
    "action": 0,
    "reward": 3.3
  },
  {
    "phase": "TASK",
    "condition": "Cond1",
    "trial_num": 36,
    "trial_length": 10,
    "click_num": 8,
    "RT": 921,
    "action": 0,
    "reward": 3.3
  },
  {
    "phase": "TASK",
    "condition": "Cond1",
    "trial_num": 36,
    "trial_length": 10,
    "click_num": 9,
    "RT": 752,
    "action": 0,
    "reward": 3.3
  },
  {
    "phase": "TASK",
    "condition": "Cond1",
    "trial_num": 36,
    "trial_length": 10,
    "click_num": 10,
    "RT": 769,
    "action": 0,
    "reward": 3.3
  },
  {
    "phase": "TASK",
    "condition": "Cond1",
    "trial_num": 37,
    "trial_length": 8,
    "click_num": 1,
    "RT": 4104,
    "action": 1,
    "reward": 4
  },
  {
    "phase": "TASK",
    "condition": "Cond1",
    "trial_num": 37,
    "trial_length": 8,
    "click_num": 2,
    "RT": 1917,
    "action": 0,
    "reward": 4
  },
  {
    "phase": "TASK",
    "condition": "Cond1",
    "trial_num": 37,
    "trial_length": 8,
    "click_num": 3,
    "RT": 1249,
    "action": 0,
    "reward": 4
  },
  {
    "phase": "TASK",
    "condition": "Cond1",
    "trial_num": 37,
    "trial_length": 8,
    "click_num": 4,
    "RT": 1119,
    "action": 0,
    "reward": 4
  },
  {
    "phase": "TASK",
    "condition": "Cond1",
    "trial_num": 37,
    "trial_length": 8,
    "click_num": 5,
    "RT": 1368,
    "action": 0,
    "reward": 4
  },
  {
    "phase": "TASK",
    "condition": "Cond1",
    "trial_num": 37,
    "trial_length": 8,
    "click_num": 6,
    "RT": 841,
    "action": 0,
    "reward": 4
  },
  {
    "phase": "TASK",
    "condition": "Cond1",
    "trial_num": 37,
    "trial_length": 8,
    "click_num": 7,
    "RT": 926,
    "action": 0,
    "reward": 4
  },
  {
    "phase": "TASK",
    "condition": "Cond1",
    "trial_num": 37,
    "trial_length": 8,
    "click_num": 8,
    "RT": 1705,
    "action": 0,
    "reward": 4
  },
  {
    "phase": "TASK",
    "condition": "Cond1",
    "trial_num": 38,
    "trial_length": 8,
    "click_num": 1,
    "RT": 1432,
    "action": 1,
    "reward": 3.3
  },
  {
    "phase": "TASK",
    "condition": "Cond1",
    "trial_num": 38,
    "trial_length": 8,
    "click_num": 2,
    "RT": 1816,
    "action": 1,
    "reward": 3.8
  },
  {
    "phase": "TASK",
    "condition": "Cond1",
    "trial_num": 38,
    "trial_length": 8,
    "click_num": 3,
    "RT": 1247,
    "action": 1,
    "reward": 2.9
  },
  {
    "phase": "TASK",
    "condition": "Cond1",
    "trial_num": 38,
    "trial_length": 8,
    "click_num": 4,
    "RT": 1235,
    "action": 0,
    "reward": 3.8
  },
  {
    "phase": "TASK",
    "condition": "Cond1",
    "trial_num": 38,
    "trial_length": 8,
    "click_num": 5,
    "RT": 1061,
    "action": 0,
    "reward": 3.8
  },
  {
    "phase": "TASK",
    "condition": "Cond1",
    "trial_num": 38,
    "trial_length": 8,
    "click_num": 6,
    "RT": 992,
    "action": 0,
    "reward": 3.8
  },
  {
    "phase": "TASK",
    "condition": "Cond1",
    "trial_num": 38,
    "trial_length": 8,
    "click_num": 7,
    "RT": 858,
    "action": 0,
    "reward": 3.8
  },
  {
    "phase": "TASK",
    "condition": "Cond1",
    "trial_num": 38,
    "trial_length": 8,
    "click_num": 8,
    "RT": 918,
    "action": 0,
    "reward": 3.8
  },
  {
    "phase": "TASK",
    "condition": "Cond1",
    "trial_num": 39,
    "trial_length": 7,
    "click_num": 1,
    "RT": 1344,
    "action": 1,
    "reward": 3
  },
  {
    "phase": "TASK",
    "condition": "Cond1",
    "trial_num": 39,
    "trial_length": 7,
    "click_num": 2,
    "RT": 1207,
    "action": 1,
    "reward": 3.4
  },
  {
    "phase": "TASK",
    "condition": "Cond1",
    "trial_num": 39,
    "trial_length": 7,
    "click_num": 3,
    "RT": 1880,
    "action": 1,
    "reward": 3.1
  },
  {
    "phase": "TASK",
    "condition": "Cond1",
    "trial_num": 39,
    "trial_length": 7,
    "click_num": 4,
    "RT": 1816,
    "action": 0,
    "reward": 3.4
  },
  {
    "phase": "TASK",
    "condition": "Cond1",
    "trial_num": 39,
    "trial_length": 7,
    "click_num": 5,
    "RT": 1304,
    "action": 1,
    "reward": 2.9
  },
  {
    "phase": "TASK",
    "condition": "Cond1",
    "trial_num": 39,
    "trial_length": 7,
    "click_num": 6,
    "RT": 1055,
    "action": 0,
    "reward": 3.4
  },
  {
    "phase": "TASK",
    "condition": "Cond1",
    "trial_num": 39,
    "trial_length": 7,
    "click_num": 7,
    "RT": 1001,
    "action": 0,
    "reward": 3.4
  },
  {
    "phase": "TASK",
    "condition": "Cond1",
    "trial_num": 40,
    "trial_length": 5,
    "click_num": 1,
    "RT": 1872,
    "action": 1,
    "reward": 2.4
  },
  {
    "phase": "TASK",
    "condition": "Cond1",
    "trial_num": 40,
    "trial_length": 5,
    "click_num": 2,
    "RT": 1536,
    "action": 1,
    "reward": 2.4
  },
  {
    "phase": "TASK",
    "condition": "Cond1",
    "trial_num": 40,
    "trial_length": 5,
    "click_num": 3,
    "RT": 1184,
    "action": 1,
    "reward": 2.9
  },
  {
    "phase": "TASK",
    "condition": "Cond1",
    "trial_num": 40,
    "trial_length": 5,
    "click_num": 4,
    "RT": 1567,
    "action": 1,
    "reward": 2.6
  },
  {
    "phase": "TASK",
    "condition": "Cond1",
    "trial_num": 40,
    "trial_length": 5,
    "click_num": 5,
    "RT": 3945,
    "action": 1,
    "reward": 3.6
  },
  {
    "phase": "TASK",
    "condition": "Cond1",
    "trial_num": 41,
    "trial_length": 8,
    "click_num": 1,
    "RT": 5031,
    "action": 1,
    "reward": 4.1
  },
  {
    "phase": "TASK",
    "condition": "Cond1",
    "trial_num": 41,
    "trial_length": 8,
    "click_num": 2,
    "RT": 2497,
    "action": 0,
    "reward": 4.1
  },
  {
    "phase": "TASK",
    "condition": "Cond1",
    "trial_num": 41,
    "trial_length": 8,
    "click_num": 3,
    "RT": 1415,
    "action": 0,
    "reward": 4.1
  },
  {
    "phase": "TASK",
    "condition": "Cond1",
    "trial_num": 41,
    "trial_length": 8,
    "click_num": 4,
    "RT": 800,
    "action": 0,
    "reward": 4.1
  },
  {
    "phase": "TASK",
    "condition": "Cond1",
    "trial_num": 41,
    "trial_length": 8,
    "click_num": 5,
    "RT": 763,
    "action": 0,
    "reward": 4.1
  },
  {
    "phase": "TASK",
    "condition": "Cond1",
    "trial_num": 41,
    "trial_length": 8,
    "click_num": 6,
    "RT": 751,
    "action": 0,
    "reward": 4.1
  },
  {
    "phase": "TASK",
    "condition": "Cond1",
    "trial_num": 41,
    "trial_length": 8,
    "click_num": 7,
    "RT": 663,
    "action": 0,
    "reward": 4.1
  },
  {
    "phase": "TASK",
    "condition": "Cond1",
    "trial_num": 41,
    "trial_length": 8,
    "click_num": 8,
    "RT": 632,
    "action": 0,
    "reward": 4.1
  },
  {
    "phase": "TASK",
    "condition": "Cond1",
    "trial_num": 42,
    "trial_length": 10,
    "click_num": 1,
    "RT": 1455,
    "action": 1,
    "reward": 2.6
  },
  {
    "phase": "TASK",
    "condition": "Cond1",
    "trial_num": 42,
    "trial_length": 10,
    "click_num": 2,
    "RT": 1367,
    "action": 1,
    "reward": 2.8
  },
  {
    "phase": "TASK",
    "condition": "Cond1",
    "trial_num": 42,
    "trial_length": 10,
    "click_num": 3,
    "RT": 1294,
    "action": 1,
    "reward": 2.1
  },
  {
    "phase": "TASK",
    "condition": "Cond1",
    "trial_num": 42,
    "trial_length": 10,
    "click_num": 4,
    "RT": 1792,
    "action": 1,
    "reward": 2.7
  },
  {
    "phase": "TASK",
    "condition": "Cond1",
    "trial_num": 42,
    "trial_length": 10,
    "click_num": 5,
    "RT": 1465,
    "action": 1,
    "reward": 2.9
  },
  {
    "phase": "TASK",
    "condition": "Cond1",
    "trial_num": 42,
    "trial_length": 10,
    "click_num": 6,
    "RT": 1472,
    "action": 1,
    "reward": 2.4
  },
  {
    "phase": "TASK",
    "condition": "Cond1",
    "trial_num": 42,
    "trial_length": 10,
    "click_num": 7,
    "RT": 1807,
    "action": 0,
    "reward": 2.9
  },
  {
    "phase": "TASK",
    "condition": "Cond1",
    "trial_num": 42,
    "trial_length": 10,
    "click_num": 8,
    "RT": 1025,
    "action": 1,
    "reward": 2.8
  },
  {
    "phase": "TASK",
    "condition": "Cond1",
    "trial_num": 42,
    "trial_length": 10,
    "click_num": 9,
    "RT": 1695,
    "action": 0,
    "reward": 2.9
  },
  {
    "phase": "TASK",
    "condition": "Cond1",
    "trial_num": 42,
    "trial_length": 10,
    "click_num": 10,
    "RT": 904,
    "action": 0,
    "reward": 2.9
  },
  {
    "phase": "TASK",
    "condition": "Cond1",
    "trial_num": 43,
    "trial_length": 8,
    "click_num": 1,
    "RT": 1856,
    "action": 1,
    "reward": 3
  },
  {
    "phase": "TASK",
    "condition": "Cond1",
    "trial_num": 43,
    "trial_length": 8,
    "click_num": 2,
    "RT": 2230,
    "action": 1,
    "reward": 3.3
  },
  {
    "phase": "TASK",
    "condition": "Cond1",
    "trial_num": 43,
    "trial_length": 8,
    "click_num": 3,
    "RT": 1578,
    "action": 1,
    "reward": 2.4
  },
  {
    "phase": "TASK",
    "condition": "Cond1",
    "trial_num": 43,
    "trial_length": 8,
    "click_num": 4,
    "RT": 2007,
    "action": 1,
    "reward": 3.9
  },
  {
    "phase": "TASK",
    "condition": "Cond1",
    "trial_num": 43,
    "trial_length": 8,
    "click_num": 5,
    "RT": 1944,
    "action": 0,
    "reward": 3.9
  },
  {
    "phase": "TASK",
    "condition": "Cond1",
    "trial_num": 43,
    "trial_length": 8,
    "click_num": 6,
    "RT": 816,
    "action": 0,
    "reward": 3.9
  },
  {
    "phase": "TASK",
    "condition": "Cond1",
    "trial_num": 43,
    "trial_length": 8,
    "click_num": 7,
    "RT": 713,
    "action": 0,
    "reward": 3.9
  },
  {
    "phase": "TASK",
    "condition": "Cond1",
    "trial_num": 43,
    "trial_length": 8,
    "click_num": 8,
    "RT": 726,
    "action": 0,
    "reward": 3.9
  },
  {
    "phase": "TASK",
    "condition": "Cond1",
    "trial_num": 44,
    "trial_length": 5,
    "click_num": 1,
    "RT": 1464,
    "action": 1,
    "reward": 3.9
  },
  {
    "phase": "TASK",
    "condition": "Cond1",
    "trial_num": 44,
    "trial_length": 5,
    "click_num": 2,
    "RT": 1752,
    "action": 0,
    "reward": 3.9
  },
  {
    "phase": "TASK",
    "condition": "Cond1",
    "trial_num": 44,
    "trial_length": 5,
    "click_num": 3,
    "RT": 944,
    "action": 0,
    "reward": 3.9
  },
  {
    "phase": "TASK",
    "condition": "Cond1",
    "trial_num": 44,
    "trial_length": 5,
    "click_num": 4,
    "RT": 802,
    "action": 0,
    "reward": 3.9
  },
  {
    "phase": "TASK",
    "condition": "Cond1",
    "trial_num": 44,
    "trial_length": 5,
    "click_num": 5,
    "RT": 1534,
    "action": 0,
    "reward": 3.9
  },
  {
    "phase": "TASK",
    "condition": "Cond1",
    "trial_num": 45,
    "trial_length": 5,
    "click_num": 1,
    "RT": 1679,
    "action": 1,
    "reward": 2.6
  },
  {
    "phase": "TASK",
    "condition": "Cond1",
    "trial_num": 45,
    "trial_length": 5,
    "click_num": 2,
    "RT": 1585,
    "action": 1,
    "reward": 2.9
  },
  {
    "phase": "TASK",
    "condition": "Cond1",
    "trial_num": 45,
    "trial_length": 5,
    "click_num": 3,
    "RT": 1408,
    "action": 1,
    "reward": 2.9
  },
  {
    "phase": "TASK",
    "condition": "Cond1",
    "trial_num": 45,
    "trial_length": 5,
    "click_num": 4,
    "RT": 1529,
    "action": 1,
    "reward": 2.9
  },
  {
    "phase": "TASK",
    "condition": "Cond1",
    "trial_num": 45,
    "trial_length": 5,
    "click_num": 5,
    "RT": 1625,
    "action": 1,
    "reward": 3.4
  },
  {
    "phase": "TASK",
    "condition": "Cond1",
    "trial_num": 46,
    "trial_length": 6,
    "click_num": 1,
    "RT": 1510,
    "action": 1,
    "reward": 3.7
  },
  {
    "phase": "TASK",
    "condition": "Cond1",
    "trial_num": 46,
    "trial_length": 6,
    "click_num": 2,
    "RT": 1801,
    "action": 1,
    "reward": 1.5
  },
  {
    "phase": "TASK",
    "condition": "Cond1",
    "trial_num": 46,
    "trial_length": 6,
    "click_num": 3,
    "RT": 2207,
    "action": 0,
    "reward": 3.7
  },
  {
    "phase": "TASK",
    "condition": "Cond1",
    "trial_num": 46,
    "trial_length": 6,
    "click_num": 4,
    "RT": 1176,
    "action": 1,
    "reward": 3.9
  },
  {
    "phase": "TASK",
    "condition": "Cond1",
    "trial_num": 46,
    "trial_length": 6,
    "click_num": 5,
    "RT": 2776,
    "action": 0,
    "reward": 3.9
  },
  {
    "phase": "TASK",
    "condition": "Cond1",
    "trial_num": 46,
    "trial_length": 6,
    "click_num": 6,
    "RT": 1599,
    "action": 0,
    "reward": 3.9
  },
  {
    "phase": "TASK",
    "condition": "Cond1",
    "trial_num": 47,
    "trial_length": 5,
    "click_num": 1,
    "RT": 1511,
    "action": 1,
    "reward": 3.9
  },
  {
    "phase": "TASK",
    "condition": "Cond1",
    "trial_num": 47,
    "trial_length": 5,
    "click_num": 2,
    "RT": 1728,
    "action": 0,
    "reward": 3.9
  },
  {
    "phase": "TASK",
    "condition": "Cond1",
    "trial_num": 47,
    "trial_length": 5,
    "click_num": 3,
    "RT": 740,
    "action": 0,
    "reward": 3.9
  },
  {
    "phase": "TASK",
    "condition": "Cond1",
    "trial_num": 47,
    "trial_length": 5,
    "click_num": 4,
    "RT": 645,
    "action": 0,
    "reward": 3.9
  },
  {
    "phase": "TASK",
    "condition": "Cond1",
    "trial_num": 47,
    "trial_length": 5,
    "click_num": 5,
    "RT": 687,
    "action": 0,
    "reward": 3.9
  },
  {
    "phase": "TASK",
    "condition": "Cond1",
    "trial_num": 48,
    "trial_length": 10,
    "click_num": 1,
    "RT": 1122,
    "action": 1,
    "reward": 2.9
  },
  {
    "phase": "TASK",
    "condition": "Cond1",
    "trial_num": 48,
    "trial_length": 10,
    "click_num": 2,
    "RT": 1148,
    "action": 1,
    "reward": 3
  },
  {
    "phase": "TASK",
    "condition": "Cond1",
    "trial_num": 48,
    "trial_length": 10,
    "click_num": 3,
    "RT": 945,
    "action": 1,
    "reward": 2.6
  },
  {
    "phase": "TASK",
    "condition": "Cond1",
    "trial_num": 48,
    "trial_length": 10,
    "click_num": 4,
    "RT": 2895,
    "action": 1,
    "reward": 2.6
  },
  {
    "phase": "TASK",
    "condition": "Cond1",
    "trial_num": 48,
    "trial_length": 10,
    "click_num": 5,
    "RT": 1952,
    "action": 1,
    "reward": 2.7
  },
  {
    "phase": "TASK",
    "condition": "Cond1",
    "trial_num": 48,
    "trial_length": 10,
    "click_num": 6,
    "RT": 1323,
    "action": 1,
    "reward": 3.1
  },
  {
    "phase": "TASK",
    "condition": "Cond1",
    "trial_num": 48,
    "trial_length": 10,
    "click_num": 7,
    "RT": 2933,
    "action": 1,
    "reward": 2.8
  },
  {
    "phase": "TASK",
    "condition": "Cond1",
    "trial_num": 48,
    "trial_length": 10,
    "click_num": 8,
    "RT": 1537,
    "action": 1,
    "reward": 2.6
  },
  {
    "phase": "TASK",
    "condition": "Cond1",
    "trial_num": 48,
    "trial_length": 10,
    "click_num": 9,
    "RT": 1134,
    "action": 0,
    "reward": 3.1
  },
  {
    "phase": "TASK",
    "condition": "Cond1",
    "trial_num": 48,
    "trial_length": 10,
    "click_num": 10,
    "RT": 2032,
    "action": 0,
    "reward": 3.1
  },
  {
    "phase": "TASK",
    "condition": "Cond1",
    "trial_num": 49,
    "trial_length": 7,
    "click_num": 1,
    "RT": 1444,
    "action": 1,
    "reward": 2.8
  },
  {
    "phase": "TASK",
    "condition": "Cond1",
    "trial_num": 49,
    "trial_length": 7,
    "click_num": 2,
    "RT": 1151,
    "action": 1,
    "reward": 3.4
  },
  {
    "phase": "TASK",
    "condition": "Cond1",
    "trial_num": 49,
    "trial_length": 7,
    "click_num": 3,
    "RT": 1376,
    "action": 1,
    "reward": 3.4
  },
  {
    "phase": "TASK",
    "condition": "Cond1",
    "trial_num": 49,
    "trial_length": 7,
    "click_num": 4,
    "RT": 1752,
    "action": 1,
    "reward": 3.7
  },
  {
    "phase": "TASK",
    "condition": "Cond1",
    "trial_num": 49,
    "trial_length": 7,
    "click_num": 5,
    "RT": 3753,
    "action": 1,
    "reward": 3
  },
  {
    "phase": "TASK",
    "condition": "Cond1",
    "trial_num": 49,
    "trial_length": 7,
    "click_num": 6,
    "RT": 1218,
    "action": 0,
    "reward": 3.7
  },
  {
    "phase": "TASK",
    "condition": "Cond1",
    "trial_num": 49,
    "trial_length": 7,
    "click_num": 7,
    "RT": 742,
    "action": 0,
    "reward": 3.7
  },
  {
    "phase": "TASK",
    "condition": "Cond1",
    "trial_num": 50,
    "trial_length": 6,
    "click_num": 1,
    "RT": 1726,
    "action": 1,
    "reward": 2.9
  },
  {
    "phase": "TASK",
    "condition": "Cond1",
    "trial_num": 50,
    "trial_length": 6,
    "click_num": 2,
    "RT": 2440,
    "action": 1,
    "reward": 3
  },
  {
    "phase": "TASK",
    "condition": "Cond1",
    "trial_num": 50,
    "trial_length": 6,
    "click_num": 3,
    "RT": 1224,
    "action": 1,
    "reward": 2.2
  },
  {
    "phase": "TASK",
    "condition": "Cond1",
    "trial_num": 50,
    "trial_length": 6,
    "click_num": 4,
    "RT": 1969,
    "action": 1,
    "reward": 2.5
  },
  {
    "phase": "TASK",
    "condition": "Cond1",
    "trial_num": 50,
    "trial_length": 6,
    "click_num": 5,
    "RT": 1511,
    "action": 0,
    "reward": 3
  },
  {
    "phase": "TASK",
    "condition": "Cond1",
    "trial_num": 50,
    "trial_length": 6,
    "click_num": 6,
    "RT": 1072,
    "action": 0,
    "reward": 3
  },
  {
    "phase": "TASK",
    "condition": "Cond1",
    "trial_num": 51,
    "trial_length": 5,
    "click_num": 1,
    "RT": 1215,
    "action": 1,
    "reward": 3.6
  },
  {
    "phase": "TASK",
    "condition": "Cond1",
    "trial_num": 51,
    "trial_length": 5,
    "click_num": 2,
    "RT": 2775,
    "action": 1,
    "reward": 2.2
  },
  {
    "phase": "TASK",
    "condition": "Cond1",
    "trial_num": 51,
    "trial_length": 5,
    "click_num": 3,
    "RT": 1481,
    "action": 0,
    "reward": 3.6
  },
  {
    "phase": "TASK",
    "condition": "Cond1",
    "trial_num": 51,
    "trial_length": 5,
    "click_num": 4,
    "RT": 895,
    "action": 1,
    "reward": 2.6
  },
  {
    "phase": "TASK",
    "condition": "Cond1",
    "trial_num": 51,
    "trial_length": 5,
    "click_num": 5,
    "RT": 961,
    "action": 0,
    "reward": 3.6
  },
  {
    "phase": "TASK",
    "condition": "Cond1",
    "trial_num": 52,
    "trial_length": 10,
    "click_num": 1,
    "RT": 1272,
    "action": 1,
    "reward": 3.7
  },
  {
    "phase": "TASK",
    "condition": "Cond1",
    "trial_num": 52,
    "trial_length": 10,
    "click_num": 2,
    "RT": 1992,
    "action": 1,
    "reward": 3
  },
  {
    "phase": "TASK",
    "condition": "Cond1",
    "trial_num": 52,
    "trial_length": 10,
    "click_num": 3,
    "RT": 1447,
    "action": 1,
    "reward": 3
  },
  {
    "phase": "TASK",
    "condition": "Cond1",
    "trial_num": 52,
    "trial_length": 10,
    "click_num": 4,
    "RT": 1561,
    "action": 1,
    "reward": 3.4
  },
  {
    "phase": "TASK",
    "condition": "Cond1",
    "trial_num": 52,
    "trial_length": 10,
    "click_num": 5,
    "RT": 1064,
    "action": 0,
    "reward": 3.7
  },
  {
    "phase": "TASK",
    "condition": "Cond1",
    "trial_num": 52,
    "trial_length": 10,
    "click_num": 6,
    "RT": 687,
    "action": 0,
    "reward": 3.7
  },
  {
    "phase": "TASK",
    "condition": "Cond1",
    "trial_num": 52,
    "trial_length": 10,
    "click_num": 7,
    "RT": 672,
    "action": 0,
    "reward": 3.7
  },
  {
    "phase": "TASK",
    "condition": "Cond1",
    "trial_num": 52,
    "trial_length": 10,
    "click_num": 8,
    "RT": 707,
    "action": 0,
    "reward": 3.7
  },
  {
    "phase": "TASK",
    "condition": "Cond1",
    "trial_num": 52,
    "trial_length": 10,
    "click_num": 9,
    "RT": 687,
    "action": 0,
    "reward": 3.7
  },
  {
    "phase": "TASK",
    "condition": "Cond1",
    "trial_num": 52,
    "trial_length": 10,
    "click_num": 10,
    "RT": 1288,
    "action": 0,
    "reward": 3.7
  },
  {
    "phase": "TASK",
    "condition": "Cond1",
    "trial_num": 53,
    "trial_length": 10,
    "click_num": 1,
    "RT": 1470,
    "action": 1,
    "reward": 2.7
  },
  {
    "phase": "TASK",
    "condition": "Cond1",
    "trial_num": 53,
    "trial_length": 10,
    "click_num": 2,
    "RT": 1384,
    "action": 1,
    "reward": 3.3
  },
  {
    "phase": "TASK",
    "condition": "Cond1",
    "trial_num": 53,
    "trial_length": 10,
    "click_num": 3,
    "RT": 1200,
    "action": 1,
    "reward": 3.5
  },
  {
    "phase": "TASK",
    "condition": "Cond1",
    "trial_num": 53,
    "trial_length": 10,
    "click_num": 4,
    "RT": 1529,
    "action": 1,
    "reward": 3
  },
  {
    "phase": "TASK",
    "condition": "Cond1",
    "trial_num": 53,
    "trial_length": 10,
    "click_num": 5,
    "RT": 2295,
    "action": 1,
    "reward": 3.3
  },
  {
    "phase": "TASK",
    "condition": "Cond1",
    "trial_num": 53,
    "trial_length": 10,
    "click_num": 6,
    "RT": 1592,
    "action": 0,
    "reward": 3.5
  },
  {
    "phase": "TASK",
    "condition": "Cond1",
    "trial_num": 53,
    "trial_length": 10,
    "click_num": 7,
    "RT": 1593,
    "action": 1,
    "reward": 3.4
  },
  {
    "phase": "TASK",
    "condition": "Cond1",
    "trial_num": 53,
    "trial_length": 10,
    "click_num": 8,
    "RT": 1431,
    "action": 0,
    "reward": 3.5
  },
  {
    "phase": "TASK",
    "condition": "Cond1",
    "trial_num": 53,
    "trial_length": 10,
    "click_num": 9,
    "RT": 1257,
    "action": 1,
    "reward": 3.7
  },
  {
    "phase": "TASK",
    "condition": "Cond1",
    "trial_num": 53,
    "trial_length": 10,
    "click_num": 10,
    "RT": 2008,
    "action": 0,
    "reward": 3.7
  },
  {
    "phase": "TASK",
    "condition": "Cond1",
    "trial_num": 54,
    "trial_length": 9,
    "click_num": 1,
    "RT": 1558,
    "action": 1,
    "reward": 3.5
  },
  {
    "phase": "TASK",
    "condition": "Cond1",
    "trial_num": 54,
    "trial_length": 9,
    "click_num": 2,
    "RT": 1656,
    "action": 1,
    "reward": 2.5
  },
  {
    "phase": "TASK",
    "condition": "Cond1",
    "trial_num": 54,
    "trial_length": 9,
    "click_num": 3,
    "RT": 1248,
    "action": 1,
    "reward": 3.3
  },
  {
    "phase": "TASK",
    "condition": "Cond1",
    "trial_num": 54,
    "trial_length": 9,
    "click_num": 4,
    "RT": 1038,
    "action": 1,
    "reward": 3.7
  },
  {
    "phase": "TASK",
    "condition": "Cond1",
    "trial_num": 54,
    "trial_length": 9,
    "click_num": 5,
    "RT": 1852,
    "action": 0,
    "reward": 3.7
  },
  {
    "phase": "TASK",
    "condition": "Cond1",
    "trial_num": 54,
    "trial_length": 9,
    "click_num": 6,
    "RT": 877,
    "action": 0,
    "reward": 3.7
  },
  {
    "phase": "TASK",
    "condition": "Cond1",
    "trial_num": 54,
    "trial_length": 9,
    "click_num": 7,
    "RT": 761,
    "action": 0,
    "reward": 3.7
  },
  {
    "phase": "TASK",
    "condition": "Cond1",
    "trial_num": 54,
    "trial_length": 9,
    "click_num": 8,
    "RT": 656,
    "action": 0,
    "reward": 3.7
  },
  {
    "phase": "TASK",
    "condition": "Cond1",
    "trial_num": 54,
    "trial_length": 9,
    "click_num": 9,
    "RT": 664,
    "action": 0,
    "reward": 3.7
  },
  {
    "phase": "TASK",
    "condition": "Cond1",
    "trial_num": 55,
    "trial_length": 5,
    "click_num": 1,
    "RT": 1167,
    "action": 1,
    "reward": 3.5
  },
  {
    "phase": "TASK",
    "condition": "Cond1",
    "trial_num": 55,
    "trial_length": 5,
    "click_num": 2,
    "RT": 1440,
    "action": 1,
    "reward": 3.7
  },
  {
    "phase": "TASK",
    "condition": "Cond1",
    "trial_num": 55,
    "trial_length": 5,
    "click_num": 3,
    "RT": 1567,
    "action": 0,
    "reward": 3.7
  },
  {
    "phase": "TASK",
    "condition": "Cond1",
    "trial_num": 55,
    "trial_length": 5,
    "click_num": 4,
    "RT": 1011,
    "action": 0,
    "reward": 3.7
  },
  {
    "phase": "TASK",
    "condition": "Cond1",
    "trial_num": 55,
    "trial_length": 5,
    "click_num": 5,
    "RT": 1685,
    "action": 0,
    "reward": 3.7
  },
  {
    "phase": "TASK",
    "condition": "Cond1",
    "trial_num": 56,
    "trial_length": 9,
    "click_num": 1,
    "RT": 1109,
    "action": 1,
    "reward": 2.8
  },
  {
    "phase": "TASK",
    "condition": "Cond1",
    "trial_num": 56,
    "trial_length": 9,
    "click_num": 2,
    "RT": 1184,
    "action": 1,
    "reward": 4.3
  },
  {
    "phase": "TASK",
    "condition": "Cond1",
    "trial_num": 56,
    "trial_length": 9,
    "click_num": 3,
    "RT": 1928,
    "action": 0,
    "reward": 4.3
  },
  {
    "phase": "TASK",
    "condition": "Cond1",
    "trial_num": 56,
    "trial_length": 9,
    "click_num": 4,
    "RT": 809,
    "action": 0,
    "reward": 4.3
  },
  {
    "phase": "TASK",
    "condition": "Cond1",
    "trial_num": 56,
    "trial_length": 9,
    "click_num": 5,
    "RT": 735,
    "action": 0,
    "reward": 4.3
  },
  {
    "phase": "TASK",
    "condition": "Cond1",
    "trial_num": 56,
    "trial_length": 9,
    "click_num": 6,
    "RT": 728,
    "action": 0,
    "reward": 4.3
  },
  {
    "phase": "TASK",
    "condition": "Cond1",
    "trial_num": 56,
    "trial_length": 9,
    "click_num": 7,
    "RT": 697,
    "action": 0,
    "reward": 4.3
  },
  {
    "phase": "TASK",
    "condition": "Cond1",
    "trial_num": 56,
    "trial_length": 9,
    "click_num": 8,
    "RT": 1624,
    "action": 0,
    "reward": 4.3
  },
  {
    "phase": "TASK",
    "condition": "Cond1",
    "trial_num": 56,
    "trial_length": 9,
    "click_num": 9,
    "RT": 942,
    "action": 0,
    "reward": 4.3
  },
  {
    "phase": "TASK",
    "condition": "Cond1",
    "trial_num": 57,
    "trial_length": 5,
    "click_num": 1,
    "RT": 1295,
    "action": 1,
    "reward": 3
  },
  {
    "phase": "TASK",
    "condition": "Cond1",
    "trial_num": 57,
    "trial_length": 5,
    "click_num": 2,
    "RT": 1119,
    "action": 1,
    "reward": 2.7
  },
  {
    "phase": "TASK",
    "condition": "Cond1",
    "trial_num": 57,
    "trial_length": 5,
    "click_num": 3,
    "RT": 1016,
    "action": 1,
    "reward": 2.7
  },
  {
    "phase": "TASK",
    "condition": "Cond1",
    "trial_num": 57,
    "trial_length": 5,
    "click_num": 4,
    "RT": 850,
    "action": 1,
    "reward": 2.8
  },
  {
    "phase": "TASK",
    "condition": "Cond1",
    "trial_num": 57,
    "trial_length": 5,
    "click_num": 5,
    "RT": 973,
    "action": 0,
    "reward": 3
  },
  {
    "phase": "TASK",
    "condition": "Cond1",
    "trial_num": 58,
    "trial_length": 9,
    "click_num": 1,
    "RT": 1536,
    "action": 1,
    "reward": 4
  },
  {
    "phase": "TASK",
    "condition": "Cond1",
    "trial_num": 58,
    "trial_length": 9,
    "click_num": 2,
    "RT": 1952,
    "action": 0,
    "reward": 4
  },
  {
    "phase": "TASK",
    "condition": "Cond1",
    "trial_num": 58,
    "trial_length": 9,
    "click_num": 3,
    "RT": 616,
    "action": 0,
    "reward": 4
  },
  {
    "phase": "TASK",
    "condition": "Cond1",
    "trial_num": 58,
    "trial_length": 9,
    "click_num": 4,
    "RT": 649,
    "action": 0,
    "reward": 4
  },
  {
    "phase": "TASK",
    "condition": "Cond1",
    "trial_num": 58,
    "trial_length": 9,
    "click_num": 5,
    "RT": 631,
    "action": 0,
    "reward": 4
  },
  {
    "phase": "TASK",
    "condition": "Cond1",
    "trial_num": 58,
    "trial_length": 9,
    "click_num": 6,
    "RT": 674,
    "action": 0,
    "reward": 4
  },
  {
    "phase": "TASK",
    "condition": "Cond1",
    "trial_num": 58,
    "trial_length": 9,
    "click_num": 7,
    "RT": 622,
    "action": 0,
    "reward": 4
  },
  {
    "phase": "TASK",
    "condition": "Cond1",
    "trial_num": 58,
    "trial_length": 9,
    "click_num": 8,
    "RT": 656,
    "action": 0,
    "reward": 4
  },
  {
    "phase": "TASK",
    "condition": "Cond1",
    "trial_num": 58,
    "trial_length": 9,
    "click_num": 9,
    "RT": 1039,
    "action": 0,
    "reward": 4
  },
  {
    "phase": "TASK",
    "condition": "Cond1",
    "trial_num": 59,
    "trial_length": 10,
    "click_num": 1,
    "RT": 1437,
    "action": 1,
    "reward": 3.5
  },
  {
    "phase": "TASK",
    "condition": "Cond1",
    "trial_num": 59,
    "trial_length": 10,
    "click_num": 2,
    "RT": 1377,
    "action": 1,
    "reward": 3.1
  },
  {
    "phase": "TASK",
    "condition": "Cond1",
    "trial_num": 59,
    "trial_length": 10,
    "click_num": 3,
    "RT": 992,
    "action": 1,
    "reward": 2.6
  },
  {
    "phase": "TASK",
    "condition": "Cond1",
    "trial_num": 59,
    "trial_length": 10,
    "click_num": 4,
    "RT": 903,
    "action": 1,
    "reward": 3.3
  },
  {
    "phase": "TASK",
    "condition": "Cond1",
    "trial_num": 59,
    "trial_length": 10,
    "click_num": 5,
    "RT": 1328,
    "action": 1,
    "reward": 3.5
  },
  {
    "phase": "TASK",
    "condition": "Cond1",
    "trial_num": 59,
    "trial_length": 10,
    "click_num": 6,
    "RT": 1088,
    "action": 1,
    "reward": 2.6
  },
  {
    "phase": "TASK",
    "condition": "Cond1",
    "trial_num": 59,
    "trial_length": 10,
    "click_num": 7,
    "RT": 1706,
    "action": 0,
    "reward": 3.5
  },
  {
    "phase": "TASK",
    "condition": "Cond1",
    "trial_num": 59,
    "trial_length": 10,
    "click_num": 8,
    "RT": 774,
    "action": 1,
    "reward": 3.4
  },
  {
    "phase": "TASK",
    "condition": "Cond1",
    "trial_num": 59,
    "trial_length": 10,
    "click_num": 9,
    "RT": 1711,
    "action": 0,
    "reward": 3.5
  },
  {
    "phase": "TASK",
    "condition": "Cond1",
    "trial_num": 59,
    "trial_length": 10,
    "click_num": 10,
    "RT": 1665,
    "action": 0,
    "reward": 3.5
  },
  {
    "phase": "TASK",
    "condition": "Cond1",
    "trial_num": 60,
    "trial_length": 10,
    "click_num": 1,
    "RT": 2045,
    "action": 1,
    "reward": 3.5
  },
  {
    "phase": "TASK",
    "condition": "Cond1",
    "trial_num": 60,
    "trial_length": 10,
    "click_num": 2,
    "RT": 1249,
    "action": 1,
    "reward": 2.7
  },
  {
    "phase": "TASK",
    "condition": "Cond1",
    "trial_num": 60,
    "trial_length": 10,
    "click_num": 3,
    "RT": 1160,
    "action": 1,
    "reward": 1.8
  },
  {
    "phase": "TASK",
    "condition": "Cond1",
    "trial_num": 60,
    "trial_length": 10,
    "click_num": 4,
    "RT": 3376,
    "action": 0,
    "reward": 3.5
  },
  {
    "phase": "TASK",
    "condition": "Cond1",
    "trial_num": 60,
    "trial_length": 10,
    "click_num": 5,
    "RT": 927,
    "action": 1,
    "reward": 2.8
  },
  {
    "phase": "TASK",
    "condition": "Cond1",
    "trial_num": 60,
    "trial_length": 10,
    "click_num": 6,
    "RT": 1008,
    "action": 0,
    "reward": 3.5
  },
  {
    "phase": "TASK",
    "condition": "Cond1",
    "trial_num": 60,
    "trial_length": 10,
    "click_num": 7,
    "RT": 720,
    "action": 1,
    "reward": 3.7
  },
  {
    "phase": "TASK",
    "condition": "Cond1",
    "trial_num": 60,
    "trial_length": 10,
    "click_num": 8,
    "RT": 1624,
    "action": 0,
    "reward": 3.7
  },
  {
    "phase": "TASK",
    "condition": "Cond1",
    "trial_num": 60,
    "trial_length": 10,
    "click_num": 9,
    "RT": 961,
    "action": 0,
    "reward": 3.7
  },
  {
    "phase": "TASK",
    "condition": "Cond1",
    "trial_num": 60,
    "trial_length": 10,
    "click_num": 10,
    "RT": 928,
    "action": 0,
    "reward": 3.7
  },
  {
    "phase": "TASK",
    "condition": "Cond1",
    "trial_num": 61,
    "trial_length": 7,
    "click_num": 1,
    "RT": 1535,
    "action": 1,
    "reward": 3.6
  },
  {
    "phase": "TASK",
    "condition": "Cond1",
    "trial_num": 61,
    "trial_length": 7,
    "click_num": 2,
    "RT": 2408,
    "action": 1,
    "reward": 2.6
  },
  {
    "phase": "TASK",
    "condition": "Cond1",
    "trial_num": 61,
    "trial_length": 7,
    "click_num": 3,
    "RT": 1168,
    "action": 0,
    "reward": 3.6
  },
  {
    "phase": "TASK",
    "condition": "Cond1",
    "trial_num": 61,
    "trial_length": 7,
    "click_num": 4,
    "RT": 783,
    "action": 0,
    "reward": 3.6
  },
  {
    "phase": "TASK",
    "condition": "Cond1",
    "trial_num": 61,
    "trial_length": 7,
    "click_num": 5,
    "RT": 960,
    "action": 1,
    "reward": 3
  },
  {
    "phase": "TASK",
    "condition": "Cond1",
    "trial_num": 61,
    "trial_length": 7,
    "click_num": 6,
    "RT": 2320,
    "action": 0,
    "reward": 3.6
  },
  {
    "phase": "TASK",
    "condition": "Cond1",
    "trial_num": 61,
    "trial_length": 7,
    "click_num": 7,
    "RT": 1464,
    "action": 0,
    "reward": 3.6
  },
  {
    "phase": "TASK",
    "condition": "Cond1",
    "trial_num": 62,
    "trial_length": 9,
    "click_num": 1,
    "RT": 1191,
    "action": 1,
    "reward": 2.2
  },
  {
    "phase": "TASK",
    "condition": "Cond1",
    "trial_num": 62,
    "trial_length": 9,
    "click_num": 2,
    "RT": 1456,
    "action": 1,
    "reward": 3
  },
  {
    "phase": "TASK",
    "condition": "Cond1",
    "trial_num": 62,
    "trial_length": 9,
    "click_num": 3,
    "RT": 1441,
    "action": 1,
    "reward": 3.9
  },
  {
    "phase": "TASK",
    "condition": "Cond1",
    "trial_num": 62,
    "trial_length": 9,
    "click_num": 4,
    "RT": 2207,
    "action": 0,
    "reward": 3.9
  },
  {
    "phase": "TASK",
    "condition": "Cond1",
    "trial_num": 62,
    "trial_length": 9,
    "click_num": 5,
    "RT": 688,
    "action": 0,
    "reward": 3.9
  },
  {
    "phase": "TASK",
    "condition": "Cond1",
    "trial_num": 62,
    "trial_length": 9,
    "click_num": 6,
    "RT": 697,
    "action": 0,
    "reward": 3.9
  },
  {
    "phase": "TASK",
    "condition": "Cond1",
    "trial_num": 62,
    "trial_length": 9,
    "click_num": 7,
    "RT": 647,
    "action": 0,
    "reward": 3.9
  },
  {
    "phase": "TASK",
    "condition": "Cond1",
    "trial_num": 62,
    "trial_length": 9,
    "click_num": 8,
    "RT": 768,
    "action": 0,
    "reward": 3.9
  },
  {
    "phase": "TASK",
    "condition": "Cond1",
    "trial_num": 62,
    "trial_length": 9,
    "click_num": 9,
    "RT": 704,
    "action": 0,
    "reward": 3.9
  },
  {
    "phase": "TASK",
    "condition": "Cond1",
    "trial_num": 63,
    "trial_length": 6,
    "click_num": 1,
    "RT": 1142,
    "action": 1,
    "reward": 3.9
  },
  {
    "phase": "TASK",
    "condition": "Cond1",
    "trial_num": 63,
    "trial_length": 6,
    "click_num": 2,
    "RT": 1562,
    "action": 0,
    "reward": 3.9
  },
  {
    "phase": "TASK",
    "condition": "Cond1",
    "trial_num": 63,
    "trial_length": 6,
    "click_num": 3,
    "RT": 560,
    "action": 0,
    "reward": 3.9
  },
  {
    "phase": "TASK",
    "condition": "Cond1",
    "trial_num": 63,
    "trial_length": 6,
    "click_num": 4,
    "RT": 704,
    "action": 0,
    "reward": 3.9
  },
  {
    "phase": "TASK",
    "condition": "Cond1",
    "trial_num": 63,
    "trial_length": 6,
    "click_num": 5,
    "RT": 744,
    "action": 0,
    "reward": 3.9
  },
  {
    "phase": "TASK",
    "condition": "Cond1",
    "trial_num": 63,
    "trial_length": 6,
    "click_num": 6,
    "RT": 1416,
    "action": 0,
    "reward": 3.9
  },
  {
    "phase": "TASK",
    "condition": "Cond1",
    "trial_num": 64,
    "trial_length": 5,
    "click_num": 1,
    "RT": 1726,
    "action": 1,
    "reward": 3.2
  },
  {
    "phase": "TASK",
    "condition": "Cond1",
    "trial_num": 64,
    "trial_length": 5,
    "click_num": 2,
    "RT": 1625,
    "action": 1,
    "reward": 3.3
  },
  {
    "phase": "TASK",
    "condition": "Cond1",
    "trial_num": 64,
    "trial_length": 5,
    "click_num": 3,
    "RT": 1296,
    "action": 1,
    "reward": 2.6
  },
  {
    "phase": "TASK",
    "condition": "Cond1",
    "trial_num": 64,
    "trial_length": 5,
    "click_num": 4,
    "RT": 1489,
    "action": 1,
    "reward": 2.1
  },
  {
    "phase": "TASK",
    "condition": "Cond1",
    "trial_num": 64,
    "trial_length": 5,
    "click_num": 5,
    "RT": 1016,
    "action": 0,
    "reward": 3.3
  },
  {
    "phase": "TASK",
    "condition": "Cond1",
    "trial_num": 65,
    "trial_length": 6,
    "click_num": 1,
    "RT": 1133,
    "action": 1,
    "reward": 4.2
  },
  {
    "phase": "TASK",
    "condition": "Cond1",
    "trial_num": 65,
    "trial_length": 6,
    "click_num": 2,
    "RT": 1713,
    "action": 0,
    "reward": 4.2
  },
  {
    "phase": "TASK",
    "condition": "Cond1",
    "trial_num": 65,
    "trial_length": 6,
    "click_num": 3,
    "RT": 680,
    "action": 0,
    "reward": 4.2
  },
  {
    "phase": "TASK",
    "condition": "Cond1",
    "trial_num": 65,
    "trial_length": 6,
    "click_num": 4,
    "RT": 1480,
    "action": 0,
    "reward": 4.2
  },
  {
    "phase": "TASK",
    "condition": "Cond1",
    "trial_num": 65,
    "trial_length": 6,
    "click_num": 5,
    "RT": 1033,
    "action": 0,
    "reward": 4.2
  },
  {
    "phase": "TASK",
    "condition": "Cond1",
    "trial_num": 65,
    "trial_length": 6,
    "click_num": 6,
    "RT": 774,
    "action": 0,
    "reward": 4.2
  },
  {
    "phase": "TASK",
    "condition": "Cond1",
    "trial_num": 66,
    "trial_length": 10,
    "click_num": 1,
    "RT": 1121,
    "action": 1,
    "reward": 2
  },
  {
    "phase": "TASK",
    "condition": "Cond1",
    "trial_num": 66,
    "trial_length": 10,
    "click_num": 2,
    "RT": 1310,
    "action": 1,
    "reward": 3.5
  },
  {
    "phase": "TASK",
    "condition": "Cond1",
    "trial_num": 66,
    "trial_length": 10,
    "click_num": 3,
    "RT": 1721,
    "action": 1,
    "reward": 3.2
  },
  {
    "phase": "TASK",
    "condition": "Cond1",
    "trial_num": 66,
    "trial_length": 10,
    "click_num": 4,
    "RT": 1307,
    "action": 1,
    "reward": 2.2
  },
  {
    "phase": "TASK",
    "condition": "Cond1",
    "trial_num": 66,
    "trial_length": 10,
    "click_num": 5,
    "RT": 1277,
    "action": 1,
    "reward": 2.3
  },
  {
    "phase": "TASK",
    "condition": "Cond1",
    "trial_num": 66,
    "trial_length": 10,
    "click_num": 6,
    "RT": 1576,
    "action": 0,
    "reward": 3.5
  },
  {
    "phase": "TASK",
    "condition": "Cond1",
    "trial_num": 66,
    "trial_length": 10,
    "click_num": 7,
    "RT": 835,
    "action": 1,
    "reward": 3.1
  },
  {
    "phase": "TASK",
    "condition": "Cond1",
    "trial_num": 66,
    "trial_length": 10,
    "click_num": 8,
    "RT": 989,
    "action": 0,
    "reward": 3.5
  },
  {
    "phase": "TASK",
    "condition": "Cond1",
    "trial_num": 66,
    "trial_length": 10,
    "click_num": 9,
    "RT": 1616,
    "action": 0,
    "reward": 3.5
  },
  {
    "phase": "TASK",
    "condition": "Cond1",
    "trial_num": 66,
    "trial_length": 10,
    "click_num": 10,
    "RT": 927,
    "action": 0,
    "reward": 3.5
  },
  {
    "phase": "TASK",
    "condition": "Cond1",
    "trial_num": 67,
    "trial_length": 6,
    "click_num": 1,
    "RT": 1790,
    "action": 1,
    "reward": 3.6
  },
  {
    "phase": "TASK",
    "condition": "Cond1",
    "trial_num": 67,
    "trial_length": 6,
    "click_num": 2,
    "RT": 1336,
    "action": 1,
    "reward": 3.7
  },
  {
    "phase": "TASK",
    "condition": "Cond1",
    "trial_num": 67,
    "trial_length": 6,
    "click_num": 3,
    "RT": 2235,
    "action": 1,
    "reward": 4.5
  },
  {
    "phase": "TASK",
    "condition": "Cond1",
    "trial_num": 67,
    "trial_length": 6,
    "click_num": 4,
    "RT": 1677,
    "action": 0,
    "reward": 4.5
  },
  {
    "phase": "TASK",
    "condition": "Cond1",
    "trial_num": 67,
    "trial_length": 6,
    "click_num": 5,
    "RT": 1040,
    "action": 0,
    "reward": 4.5
  },
  {
    "phase": "TASK",
    "condition": "Cond1",
    "trial_num": 67,
    "trial_length": 6,
    "click_num": 6,
    "RT": 1634,
    "action": 0,
    "reward": 4.5
  },
  {
    "phase": "TASK",
    "condition": "Cond1",
    "trial_num": 68,
    "trial_length": 10,
    "click_num": 1,
    "RT": 4877,
    "action": 1,
    "reward": 2.4
  },
  {
    "phase": "TASK",
    "condition": "Cond1",
    "trial_num": 68,
    "trial_length": 10,
    "click_num": 2,
    "RT": 1448,
    "action": 1,
    "reward": 1.9
  },
  {
    "phase": "TASK",
    "condition": "Cond1",
    "trial_num": 68,
    "trial_length": 10,
    "click_num": 3,
    "RT": 2088,
    "action": 1,
    "reward": 3.4
  },
  {
    "phase": "TASK",
    "condition": "Cond1",
    "trial_num": 68,
    "trial_length": 10,
    "click_num": 4,
    "RT": 1432,
    "action": 1,
    "reward": 2.1
  },
  {
    "phase": "TASK",
    "condition": "Cond1",
    "trial_num": 68,
    "trial_length": 10,
    "click_num": 5,
    "RT": 1648,
    "action": 1,
    "reward": 3.4
  },
  {
    "phase": "TASK",
    "condition": "Cond1",
    "trial_num": 68,
    "trial_length": 10,
    "click_num": 6,
    "RT": 1607,
    "action": 0,
    "reward": 3.4
  },
  {
    "phase": "TASK",
    "condition": "Cond1",
    "trial_num": 68,
    "trial_length": 10,
    "click_num": 7,
    "RT": 1065,
    "action": 1,
    "reward": 4
  },
  {
    "phase": "TASK",
    "condition": "Cond1",
    "trial_num": 68,
    "trial_length": 10,
    "click_num": 8,
    "RT": 1576,
    "action": 0,
    "reward": 4
  },
  {
    "phase": "TASK",
    "condition": "Cond1",
    "trial_num": 68,
    "trial_length": 10,
    "click_num": 9,
    "RT": 815,
    "action": 0,
    "reward": 4
  },
  {
    "phase": "TASK",
    "condition": "Cond1",
    "trial_num": 68,
    "trial_length": 10,
    "click_num": 10,
    "RT": 856,
    "action": 0,
    "reward": 4
  },
  {
    "phase": "TASK",
    "condition": "Cond1",
    "trial_num": 69,
    "trial_length": 8,
    "click_num": 1,
    "RT": 1399,
    "action": 1,
    "reward": 3.9
  },
  {
    "phase": "TASK",
    "condition": "Cond1",
    "trial_num": 69,
    "trial_length": 8,
    "click_num": 2,
    "RT": 2336,
    "action": 0,
    "reward": 3.9
  },
  {
    "phase": "TASK",
    "condition": "Cond1",
    "trial_num": 69,
    "trial_length": 8,
    "click_num": 3,
    "RT": 1560,
    "action": 1,
    "reward": 2.5
  },
  {
    "phase": "TASK",
    "condition": "Cond1",
    "trial_num": 69,
    "trial_length": 8,
    "click_num": 4,
    "RT": 1657,
    "action": 0,
    "reward": 3.9
  },
  {
    "phase": "TASK",
    "condition": "Cond1",
    "trial_num": 69,
    "trial_length": 8,
    "click_num": 5,
    "RT": 799,
    "action": 0,
    "reward": 3.9
  },
  {
    "phase": "TASK",
    "condition": "Cond1",
    "trial_num": 69,
    "trial_length": 8,
    "click_num": 6,
    "RT": 681,
    "action": 0,
    "reward": 3.9
  },
  {
    "phase": "TASK",
    "condition": "Cond1",
    "trial_num": 69,
    "trial_length": 8,
    "click_num": 7,
    "RT": 656,
    "action": 0,
    "reward": 3.9
  },
  {
    "phase": "TASK",
    "condition": "Cond1",
    "trial_num": 69,
    "trial_length": 8,
    "click_num": 8,
    "RT": 1272,
    "action": 0,
    "reward": 3.9
  },
  {
    "phase": "TASK",
    "condition": "Cond1",
    "trial_num": 70,
    "trial_length": 8,
    "click_num": 1,
    "RT": 2104,
    "action": 1,
    "reward": 1.2
  },
  {
    "phase": "TASK",
    "condition": "Cond1",
    "trial_num": 70,
    "trial_length": 8,
    "click_num": 2,
    "RT": 2855,
    "action": 1,
    "reward": 2.3
  },
  {
    "phase": "TASK",
    "condition": "Cond1",
    "trial_num": 70,
    "trial_length": 8,
    "click_num": 3,
    "RT": 1280,
    "action": 1,
    "reward": 3
  },
  {
    "phase": "TASK",
    "condition": "Cond1",
    "trial_num": 70,
    "trial_length": 8,
    "click_num": 4,
    "RT": 1224,
    "action": 1,
    "reward": 2.8
  },
  {
    "phase": "TASK",
    "condition": "Cond1",
    "trial_num": 70,
    "trial_length": 8,
    "click_num": 5,
    "RT": 1337,
    "action": 1,
    "reward": 2.9
  },
  {
    "phase": "TASK",
    "condition": "Cond1",
    "trial_num": 70,
    "trial_length": 8,
    "click_num": 6,
    "RT": 2168,
    "action": 1,
    "reward": 3
  },
  {
    "phase": "TASK",
    "condition": "Cond1",
    "trial_num": 70,
    "trial_length": 8,
    "click_num": 7,
    "RT": 2184,
    "action": 1,
    "reward": 2.7
  },
  {
    "phase": "TASK",
    "condition": "Cond1",
    "trial_num": 70,
    "trial_length": 8,
    "click_num": 8,
    "RT": 1143,
    "action": 0,
    "reward": 3
  },
  {
    "phase": "TASK",
    "condition": "Cond1",
    "trial_num": 71,
    "trial_length": 6,
    "click_num": 1,
    "RT": 1382,
    "action": 1,
    "reward": 2
  },
  {
    "phase": "TASK",
    "condition": "Cond1",
    "trial_num": 71,
    "trial_length": 6,
    "click_num": 2,
    "RT": 1687,
    "action": 1,
    "reward": 3.9
  },
  {
    "phase": "TASK",
    "condition": "Cond1",
    "trial_num": 71,
    "trial_length": 6,
    "click_num": 3,
    "RT": 4145,
    "action": 0,
    "reward": 3.9
  },
  {
    "phase": "TASK",
    "condition": "Cond1",
    "trial_num": 71,
    "trial_length": 6,
    "click_num": 4,
    "RT": 919,
    "action": 0,
    "reward": 3.9
  },
  {
    "phase": "TASK",
    "condition": "Cond1",
    "trial_num": 71,
    "trial_length": 6,
    "click_num": 5,
    "RT": 648,
    "action": 0,
    "reward": 3.9
  },
  {
    "phase": "TASK",
    "condition": "Cond1",
    "trial_num": 71,
    "trial_length": 6,
    "click_num": 6,
    "RT": 714,
    "action": 0,
    "reward": 3.9
  },
  {
    "phase": "TASK",
    "condition": "Cond1",
    "trial_num": 72,
    "trial_length": 7,
    "click_num": 1,
    "RT": 1877,
    "action": 1,
    "reward": 3.1
  },
  {
    "phase": "TASK",
    "condition": "Cond1",
    "trial_num": 72,
    "trial_length": 7,
    "click_num": 2,
    "RT": 1288,
    "action": 1,
    "reward": 2.3
  },
  {
    "phase": "TASK",
    "condition": "Cond1",
    "trial_num": 72,
    "trial_length": 7,
    "click_num": 3,
    "RT": 1272,
    "action": 1,
    "reward": 2.7
  },
  {
    "phase": "TASK",
    "condition": "Cond1",
    "trial_num": 72,
    "trial_length": 7,
    "click_num": 4,
    "RT": 1511,
    "action": 1,
    "reward": 2.8
  },
  {
    "phase": "TASK",
    "condition": "Cond1",
    "trial_num": 72,
    "trial_length": 7,
    "click_num": 5,
    "RT": 1265,
    "action": 0,
    "reward": 3.1
  },
  {
    "phase": "TASK",
    "condition": "Cond1",
    "trial_num": 72,
    "trial_length": 7,
    "click_num": 6,
    "RT": 1064,
    "action": 1,
    "reward": 2.6
  },
  {
    "phase": "TASK",
    "condition": "Cond1",
    "trial_num": 72,
    "trial_length": 7,
    "click_num": 7,
    "RT": 919,
    "action": 0,
    "reward": 3.1
  },
  {
    "phase": "TASK",
    "condition": "Cond1",
    "trial_num": 73,
    "trial_length": 10,
    "click_num": 1,
    "RT": 1192,
    "action": 1,
    "reward": 2.7
  },
  {
    "phase": "TASK",
    "condition": "Cond1",
    "trial_num": 73,
    "trial_length": 10,
    "click_num": 2,
    "RT": 1744,
    "action": 1,
    "reward": 3.2
  },
  {
    "phase": "TASK",
    "condition": "Cond1",
    "trial_num": 73,
    "trial_length": 10,
    "click_num": 3,
    "RT": 1216,
    "action": 1,
    "reward": 3.4
  },
  {
    "phase": "TASK",
    "condition": "Cond1",
    "trial_num": 73,
    "trial_length": 10,
    "click_num": 4,
    "RT": 1136,
    "action": 1,
    "reward": 4.3
  },
  {
    "phase": "TASK",
    "condition": "Cond1",
    "trial_num": 73,
    "trial_length": 10,
    "click_num": 5,
    "RT": 2120,
    "action": 0,
    "reward": 4.3
  },
  {
    "phase": "TASK",
    "condition": "Cond1",
    "trial_num": 73,
    "trial_length": 10,
    "click_num": 6,
    "RT": 1800,
    "action": 0,
    "reward": 4.3
  },
  {
    "phase": "TASK",
    "condition": "Cond1",
    "trial_num": 73,
    "trial_length": 10,
    "click_num": 7,
    "RT": 1008,
    "action": 0,
    "reward": 4.3
  },
  {
    "phase": "TASK",
    "condition": "Cond1",
    "trial_num": 73,
    "trial_length": 10,
    "click_num": 8,
    "RT": 1472,
    "action": 0,
    "reward": 4.3
  },
  {
    "phase": "TASK",
    "condition": "Cond1",
    "trial_num": 73,
    "trial_length": 10,
    "click_num": 9,
    "RT": 832,
    "action": 0,
    "reward": 4.3
  },
  {
    "phase": "TASK",
    "condition": "Cond1",
    "trial_num": 73,
    "trial_length": 10,
    "click_num": 10,
    "RT": 768,
    "action": 0,
    "reward": 4.3
  },
  {
    "phase": "TASK",
    "condition": "Cond1",
    "trial_num": 74,
    "trial_length": 6,
    "click_num": 1,
    "RT": 1192,
    "action": 1,
    "reward": 3
  },
  {
    "phase": "TASK",
    "condition": "Cond1",
    "trial_num": 74,
    "trial_length": 6,
    "click_num": 2,
    "RT": 1192,
    "action": 1,
    "reward": 2.3
  },
  {
    "phase": "TASK",
    "condition": "Cond1",
    "trial_num": 74,
    "trial_length": 6,
    "click_num": 3,
    "RT": 936,
    "action": 1,
    "reward": 1.6
  },
  {
    "phase": "TASK",
    "condition": "Cond1",
    "trial_num": 74,
    "trial_length": 6,
    "click_num": 4,
    "RT": 1264,
    "action": 1,
    "reward": 3.7
  },
  {
    "phase": "TASK",
    "condition": "Cond1",
    "trial_num": 74,
    "trial_length": 6,
    "click_num": 5,
    "RT": 1776,
    "action": 0,
    "reward": 3.7
  },
  {
    "phase": "TASK",
    "condition": "Cond1",
    "trial_num": 74,
    "trial_length": 6,
    "click_num": 6,
    "RT": 631,
    "action": 0,
    "reward": 3.7
  },
  {
    "phase": "TASK",
    "condition": "Cond1",
    "trial_num": 75,
    "trial_length": 10,
    "click_num": 1,
    "RT": 1089,
    "action": 1,
    "reward": 3
  },
  {
    "phase": "TASK",
    "condition": "Cond1",
    "trial_num": 75,
    "trial_length": 10,
    "click_num": 2,
    "RT": 1294,
    "action": 1,
    "reward": 2.7
  },
  {
    "phase": "TASK",
    "condition": "Cond1",
    "trial_num": 75,
    "trial_length": 10,
    "click_num": 3,
    "RT": 746,
    "action": 1,
    "reward": 2.9
  },
  {
    "phase": "TASK",
    "condition": "Cond1",
    "trial_num": 75,
    "trial_length": 10,
    "click_num": 4,
    "RT": 695,
    "action": 1,
    "reward": 2.9
  },
  {
    "phase": "TASK",
    "condition": "Cond1",
    "trial_num": 75,
    "trial_length": 10,
    "click_num": 5,
    "RT": 961,
    "action": 1,
    "reward": 2.8
  },
  {
    "phase": "TASK",
    "condition": "Cond1",
    "trial_num": 75,
    "trial_length": 10,
    "click_num": 6,
    "RT": 1419,
    "action": 1,
    "reward": 3
  },
  {
    "phase": "TASK",
    "condition": "Cond1",
    "trial_num": 75,
    "trial_length": 10,
    "click_num": 7,
    "RT": 1812,
    "action": 1,
    "reward": 3.3
  },
  {
    "phase": "TASK",
    "condition": "Cond1",
    "trial_num": 75,
    "trial_length": 10,
    "click_num": 8,
    "RT": 2112,
    "action": 0,
    "reward": 3.3
  },
  {
    "phase": "TASK",
    "condition": "Cond1",
    "trial_num": 75,
    "trial_length": 10,
    "click_num": 9,
    "RT": 767,
    "action": 0,
    "reward": 3.3
  },
  {
    "phase": "TASK",
    "condition": "Cond1",
    "trial_num": 75,
    "trial_length": 10,
    "click_num": 10,
    "RT": 745,
    "action": 0,
    "reward": 3.3
  },
  {
    "phase": "TASK",
    "condition": "Cond1",
    "trial_num": 76,
    "trial_length": 9,
    "click_num": 1,
    "RT": 1152,
    "action": 1,
    "reward": 1.9
  },
  {
    "phase": "TASK",
    "condition": "Cond1",
    "trial_num": 76,
    "trial_length": 9,
    "click_num": 2,
    "RT": 741,
    "action": 1,
    "reward": 3.8
  },
  {
    "phase": "TASK",
    "condition": "Cond1",
    "trial_num": 76,
    "trial_length": 9,
    "click_num": 3,
    "RT": 1281,
    "action": 1,
    "reward": 2.1
  },
  {
    "phase": "TASK",
    "condition": "Cond1",
    "trial_num": 76,
    "trial_length": 9,
    "click_num": 4,
    "RT": 1200,
    "action": 0,
    "reward": 3.8
  },
  {
    "phase": "TASK",
    "condition": "Cond1",
    "trial_num": 76,
    "trial_length": 9,
    "click_num": 5,
    "RT": 639,
    "action": 0,
    "reward": 3.8
  },
  {
    "phase": "TASK",
    "condition": "Cond1",
    "trial_num": 76,
    "trial_length": 9,
    "click_num": 6,
    "RT": 576,
    "action": 0,
    "reward": 3.8
  },
  {
    "phase": "TASK",
    "condition": "Cond1",
    "trial_num": 76,
    "trial_length": 9,
    "click_num": 7,
    "RT": 698,
    "action": 0,
    "reward": 3.8
  },
  {
    "phase": "TASK",
    "condition": "Cond1",
    "trial_num": 76,
    "trial_length": 9,
    "click_num": 8,
    "RT": 1393,
    "action": 0,
    "reward": 3.8
  },
  {
    "phase": "TASK",
    "condition": "Cond1",
    "trial_num": 76,
    "trial_length": 9,
    "click_num": 9,
    "RT": 1214,
    "action": 0,
    "reward": 3.8
  },
  {
    "phase": "TASK",
    "condition": "Cond1",
    "trial_num": 77,
    "trial_length": 8,
    "click_num": 1,
    "RT": 1190,
    "action": 1,
    "reward": 2.5
  },
  {
    "phase": "TASK",
    "condition": "Cond1",
    "trial_num": 77,
    "trial_length": 8,
    "click_num": 2,
    "RT": 1090,
    "action": 1,
    "reward": 2.7
  },
  {
    "phase": "TASK",
    "condition": "Cond1",
    "trial_num": 77,
    "trial_length": 8,
    "click_num": 3,
    "RT": 1230,
    "action": 1,
    "reward": 3.4
  },
  {
    "phase": "TASK",
    "condition": "Cond1",
    "trial_num": 77,
    "trial_length": 8,
    "click_num": 4,
    "RT": 1248,
    "action": 1,
    "reward": 2.9
  },
  {
    "phase": "TASK",
    "condition": "Cond1",
    "trial_num": 77,
    "trial_length": 8,
    "click_num": 5,
    "RT": 1712,
    "action": 1,
    "reward": 2.9
  },
  {
    "phase": "TASK",
    "condition": "Cond1",
    "trial_num": 77,
    "trial_length": 8,
    "click_num": 6,
    "RT": 1183,
    "action": 0,
    "reward": 3.4
  },
  {
    "phase": "TASK",
    "condition": "Cond1",
    "trial_num": 77,
    "trial_length": 8,
    "click_num": 7,
    "RT": 672,
    "action": 1,
    "reward": 1.9
  },
  {
    "phase": "TASK",
    "condition": "Cond1",
    "trial_num": 77,
    "trial_length": 8,
    "click_num": 8,
    "RT": 1216,
    "action": 0,
    "reward": 3.4
  },
  {
    "phase": "TASK",
    "condition": "Cond1",
    "trial_num": 78,
    "trial_length": 8,
    "click_num": 1,
    "RT": 1295,
    "action": 1,
    "reward": 2.8
  },
  {
    "phase": "TASK",
    "condition": "Cond1",
    "trial_num": 78,
    "trial_length": 8,
    "click_num": 2,
    "RT": 1313,
    "action": 1,
    "reward": 3.7
  },
  {
    "phase": "TASK",
    "condition": "Cond1",
    "trial_num": 78,
    "trial_length": 8,
    "click_num": 3,
