[
  {
    "phase": "TASK",
    "condition": "Cond1",
    "trial_num": 1,
    "trial_length": 7,
    "click_num": 1,
    "RT": 4178,
    "action": 1,
    "reward": 2.4
  },
  {
    "phase": "TASK",
    "condition": "Cond1",
    "trial_num": 1,
    "trial_length": 7,
    "click_num": 2,
    "RT": 3094,
    "action": 1,
    "reward": 2.1
  },
  {
    "phase": "TASK",
    "condition": "Cond1",
    "trial_num": 1,
    "trial_length": 7,
    "click_num": 3,
    "RT": 1904,
    "action": 1,
    "reward": 3.6
  },
  {
    "phase": "TASK",
    "condition": "Cond1",
    "trial_num": 1,
    "trial_length": 7,
    "click_num": 4,
    "RT": 1864,
    "action": 1,
    "reward": 2.6
  },
  {
    "phase": "TASK",
    "condition": "Cond1",
    "trial_num": 1,
    "trial_length": 7,
    "click_num": 5,
    "RT": 1849,
    "action": 1,
    "reward": 3.1
  },
  {
    "phase": "TASK",
    "condition": "Cond1",
    "trial_num": 1,
    "trial_length": 7,
    "click_num": 6,
    "RT": 6960,
    "action": 1,
    "reward": 3.5
  },
  {
    "phase": "TASK",
    "condition": "Cond1",
    "trial_num": 1,
    "trial_length": 7,
    "click_num": 7,
    "RT": 10454,
    "action": 0,
    "reward": 3.6
  },
  {
    "phase": "TASK",
    "condition": "Cond1",
    "trial_num": 2,
    "trial_length": 6,
    "click_num": 1,
    "RT": 2548,
    "action": 1,
    "reward": 4.2
  },
  {
    "phase": "TASK",
    "condition": "Cond1",
    "trial_num": 2,
    "trial_length": 6,
    "click_num": 2,
    "RT": 3759,
    "action": 1,
    "reward": 2.8
  },
  {
    "phase": "TASK",
    "condition": "Cond1",
    "trial_num": 2,
    "trial_length": 6,
    "click_num": 3,
    "RT": 1150,
    "action": 1,
    "reward": 3.1
  },
  {
    "phase": "TASK",
    "condition": "Cond1",
    "trial_num": 2,
    "trial_length": 6,
    "click_num": 4,
    "RT": 1635,
    "action": 1,
    "reward": 2.1
  },
  {
    "phase": "TASK",
    "condition": "Cond1",
    "trial_num": 2,
    "trial_length": 6,
    "click_num": 5,
    "RT": 1679,
    "action": 1,
    "reward": 3.5
  },
  {
    "phase": "TASK",
    "condition": "Cond1",
    "trial_num": 2,
    "trial_length": 6,
    "click_num": 6,
    "RT": 1272,
    "action": 0,
    "reward": 4.2
  },
  {
    "phase": "TASK",
    "condition": "Cond1",
    "trial_num": 3,
    "trial_length": 6,
    "click_num": 1,
    "RT": 1400,
    "action": 1,
    "reward": 3.4
  },
  {
    "phase": "TASK",
    "condition": "Cond1",
    "trial_num": 3,
    "trial_length": 6,
    "click_num": 2,
    "RT": 1856,
    "action": 1,
    "reward": 2.6
  },
  {
    "phase": "TASK",
    "condition": "Cond1",
    "trial_num": 3,
    "trial_length": 6,
    "click_num": 3,
    "RT": 1240,
    "action": 1,
    "reward": 2.3
  },
  {
    "phase": "TASK",
    "condition": "Cond1",
    "trial_num": 3,
    "trial_length": 6,
    "click_num": 4,
    "RT": 967,
    "action": 1,
    "reward": 3.6
  },
  {
    "phase": "TASK",
    "condition": "Cond1",
    "trial_num": 3,
    "trial_length": 6,
    "click_num": 5,
    "RT": 1864,
    "action": 1,
    "reward": 2.7
  },
  {
    "phase": "TASK",
    "condition": "Cond1",
    "trial_num": 3,
    "trial_length": 6,
    "click_num": 6,
    "RT": 3273,
    "action": 0,
    "reward": 3.6
  },
  {
    "phase": "TASK",
    "condition": "Cond1",
    "trial_num": 4,
    "trial_length": 5,
    "click_num": 1,
    "RT": 1679,
    "action": 1,
    "reward": 3.4
  },
  {
    "phase": "TASK",
    "condition": "Cond1",
    "trial_num": 4,
    "trial_length": 5,
    "click_num": 2,
    "RT": 1240,
    "action": 1,
    "reward": 2.6
  },
  {
    "phase": "TASK",
    "condition": "Cond1",
    "trial_num": 4,
    "trial_length": 5,
    "click_num": 3,
    "RT": 851,
    "action": 1,
    "reward": 2.5
  },
  {
    "phase": "TASK",
    "condition": "Cond1",
    "trial_num": 4,
    "trial_length": 5,
    "click_num": 4,
    "RT": 1069,
    "action": 1,
    "reward": 3
  },
  {
    "phase": "TASK",
    "condition": "Cond1",
    "trial_num": 4,
    "trial_length": 5,
    "click_num": 5,
    "RT": 1616,
    "action": 0,
    "reward": 3.4
  },
  {
    "phase": "TASK",
    "condition": "Cond1",
    "trial_num": 5,
    "trial_length": 5,
    "click_num": 1,
    "RT": 1022,
    "action": 1,
    "reward": 2.4
  },
  {
    "phase": "TASK",
    "condition": "Cond1",
    "trial_num": 5,
    "trial_length": 5,
    "click_num": 2,
    "RT": 1153,
    "action": 1,
    "reward": 3.1
  },
  {
    "phase": "TASK",
    "condition": "Cond1",
    "trial_num": 5,
    "trial_length": 5,
    "click_num": 3,
    "RT": 895,
    "action": 1,
    "reward": 3
  },
  {
    "phase": "TASK",
    "condition": "Cond1",
    "trial_num": 5,
    "trial_length": 5,
    "click_num": 4,
    "RT": 864,
    "action": 1,
    "reward": 3.8
  },
  {
    "phase": "TASK",
    "condition": "Cond1",
    "trial_num": 5,
    "trial_length": 5,
    "click_num": 5,
    "RT": 1304,
    "action": 0,
    "reward": 3.8
  },
  {
    "phase": "TASK",
    "condition": "Cond1",
    "trial_num": 6,
    "trial_length": 9,
    "click_num": 1,
    "RT": 1034,
    "action": 1,
    "reward": 3.8
  },
  {
    "phase": "TASK",
    "condition": "Cond1",
    "trial_num": 6,
    "trial_length": 9,
    "click_num": 2,
    "RT": 926,
    "action": 1,
    "reward": 2.4
  },
  {
    "phase": "TASK",
    "condition": "Cond1",
    "trial_num": 6,
    "trial_length": 9,
    "click_num": 3,
    "RT": 792,
    "action": 1,
    "reward": 3.2
  },
  {
    "phase": "TASK",
    "condition": "Cond1",
    "trial_num": 6,
    "trial_length": 9,
    "click_num": 4,
    "RT": 703,
    "action": 1,
    "reward": 3.8
  },
  {
    "phase": "TASK",
    "condition": "Cond1",
    "trial_num": 6,
    "trial_length": 9,
    "click_num": 5,
    "RT": 713,
    "action": 1,
    "reward": 1.3
  },
  {
    "phase": "TASK",
    "condition": "Cond1",
    "trial_num": 6,
    "trial_length": 9,
    "click_num": 6,
    "RT": 752,
    "action": 1,
    "reward": 1.8
  },
  {
    "phase": "TASK",
    "condition": "Cond1",
    "trial_num": 6,
    "trial_length": 9,
    "click_num": 7,
    "RT": 816,
    "action": 1,
    "reward": 3.5
  },
  {
    "phase": "TASK",
    "condition": "Cond1",
    "trial_num": 6,
    "trial_length": 9,
    "click_num": 8,
    "RT": 880,
    "action": 1,
    "reward": 2.9
  },
  {
    "phase": "TASK",
    "condition": "Cond1",
    "trial_num": 6,
    "trial_length": 9,
    "click_num": 9,
    "RT": 912,
    "action": 0,
    "reward": 3.8
  },
  {
    "phase": "TASK",
    "condition": "Cond1",
    "trial_num": 7,
    "trial_length": 7,
    "click_num": 1,
    "RT": 1046,
    "action": 1,
    "reward": 3.9
  },
  {
    "phase": "TASK",
    "condition": "Cond1",
    "trial_num": 7,
    "trial_length": 7,
    "click_num": 2,
    "RT": 752,
    "action": 1,
    "reward": 2.7
  },
  {
    "phase": "TASK",
    "condition": "Cond1",
    "trial_num": 7,
    "trial_length": 7,
    "click_num": 3,
    "RT": 703,
    "action": 1,
    "reward": 2.2
  },
  {
    "phase": "TASK",
    "condition": "Cond1",
    "trial_num": 7,
    "trial_length": 7,
    "click_num": 4,
    "RT": 633,
    "action": 1,
    "reward": 2.5
  },
  {
    "phase": "TASK",
    "condition": "Cond1",
    "trial_num": 7,
    "trial_length": 7,
    "click_num": 5,
    "RT": 767,
    "action": 1,
    "reward": 3.2
  },
  {
    "phase": "TASK",
    "condition": "Cond1",
    "trial_num": 7,
    "trial_length": 7,
    "click_num": 6,
    "RT": 745,
    "action": 1,
    "reward": 3.6
  },
  {
    "phase": "TASK",
    "condition": "Cond1",
    "trial_num": 7,
    "trial_length": 7,
    "click_num": 7,
    "RT": 816,
    "action": 0,
    "reward": 3.9
  },
  {
    "phase": "TASK",
    "condition": "Cond1",
    "trial_num": 8,
    "trial_length": 7,
    "click_num": 1,
    "RT": 831,
    "action": 1,
    "reward": 3.7
  },
  {
    "phase": "TASK",
    "condition": "Cond1",
    "trial_num": 8,
    "trial_length": 7,
    "click_num": 2,
    "RT": 927,
    "action": 1,
    "reward": 2.9
  },
  {
    "phase": "TASK",
    "condition": "Cond1",
    "trial_num": 8,
    "trial_length": 7,
    "click_num": 3,
    "RT": 736,
    "action": 1,
    "reward": 3.4
  },
  {
    "phase": "TASK",
    "condition": "Cond1",
    "trial_num": 8,
    "trial_length": 7,
    "click_num": 4,
    "RT": 1032,
    "action": 1,
    "reward": 3.3
  },
  {
    "phase": "TASK",
    "condition": "Cond1",
    "trial_num": 8,
    "trial_length": 7,
    "click_num": 5,
    "RT": 888,
    "action": 1,
    "reward": 2.9
  },
  {
    "phase": "TASK",
    "condition": "Cond1",
    "trial_num": 8,
    "trial_length": 7,
    "click_num": 6,
    "RT": 745,
    "action": 1,
    "reward": 3
  },
  {
    "phase": "TASK",
    "condition": "Cond1",
    "trial_num": 8,
    "trial_length": 7,
    "click_num": 7,
    "RT": 847,
    "action": 0,
    "reward": 3.7
  },
  {
    "phase": "TASK",
    "condition": "Cond1",
    "trial_num": 9,
    "trial_length": 10,
    "click_num": 1,
    "RT": 1189,
    "action": 1,
    "reward": 2.9
  },
  {
    "phase": "TASK",
    "condition": "Cond1",
    "trial_num": 9,
    "trial_length": 10,
    "click_num": 2,
    "RT": 736,
    "action": 1,
    "reward": 3.9
  },
  {
    "phase": "TASK",
    "condition": "Cond1",
    "trial_num": 9,
    "trial_length": 10,
    "click_num": 3,
    "RT": 834,
    "action": 1,
    "reward": 2.3
  },
  {
    "phase": "TASK",
    "condition": "Cond1",
    "trial_num": 9,
    "trial_length": 10,
    "click_num": 4,
    "RT": 638,
    "action": 1,
    "reward": 3
  },
  {
    "phase": "TASK",
    "condition": "Cond1",
    "trial_num": 9,
    "trial_length": 10,
    "click_num": 5,
    "RT": 689,
    "action": 1,
    "reward": 3.2
  },
  {
    "phase": "TASK",
    "condition": "Cond1",
    "trial_num": 9,
    "trial_length": 10,
    "click_num": 6,
    "RT": 719,
    "action": 1,
    "reward": 2.3
  },
  {
    "phase": "TASK",
    "condition": "Cond1",
    "trial_num": 9,
    "trial_length": 10,
    "click_num": 7,
    "RT": 639,
    "action": 1,
    "reward": 2.5
  },
  {
    "phase": "TASK",
    "condition": "Cond1",
    "trial_num": 9,
    "trial_length": 10,
    "click_num": 8,
    "RT": 721,
    "action": 1,
    "reward": 4.1
  },
  {
    "phase": "TASK",
    "condition": "Cond1",
    "trial_num": 9,
    "trial_length": 10,
    "click_num": 9,
    "RT": 1056,
    "action": 1,
    "reward": 2.6
  },
  {
    "phase": "TASK",
    "condition": "Cond1",
    "trial_num": 9,
    "trial_length": 10,
    "click_num": 10,
    "RT": 865,
    "action": 0,
    "reward": 4.1
  },
  {
    "phase": "TASK",
    "condition": "Cond1",
    "trial_num": 10,
    "trial_length": 7,
    "click_num": 1,
    "RT": 1503,
    "action": 1,
    "reward": 2.9
  },
  {
    "phase": "TASK",
    "condition": "Cond1",
    "trial_num": 10,
    "trial_length": 7,
    "click_num": 2,
    "RT": 1008,
    "action": 1,
    "reward": 3.3
  },
  {
    "phase": "TASK",
    "condition": "Cond1",
    "trial_num": 10,
    "trial_length": 7,
    "click_num": 3,
    "RT": 688,
    "action": 1,
    "reward": 1.8
  },
  {
    "phase": "TASK",
    "condition": "Cond1",
    "trial_num": 10,
    "trial_length": 7,
    "click_num": 4,
    "RT": 1039,
    "action": 1,
    "reward": 2.8
  },
  {
    "phase": "TASK",
    "condition": "Cond1",
    "trial_num": 10,
    "trial_length": 7,
    "click_num": 5,
    "RT": 777,
    "action": 1,
    "reward": 2.5
  },
  {
    "phase": "TASK",
    "condition": "Cond1",
    "trial_num": 10,
    "trial_length": 7,
    "click_num": 6,
    "RT": 1368,
    "action": 1,
    "reward": 2.4
  },
  {
    "phase": "TASK",
    "condition": "Cond1",
    "trial_num": 10,
    "trial_length": 7,
    "click_num": 7,
    "RT": 1342,
    "action": 0,
    "reward": 3.3
  },
  {
    "phase": "TASK",
    "condition": "Cond1",
    "trial_num": 11,
    "trial_length": 6,
    "click_num": 1,
    "RT": 886,
    "action": 1,
    "reward": 4.5
  },
  {
    "phase": "TASK",
    "condition": "Cond1",
    "trial_num": 11,
    "trial_length": 6,
    "click_num": 2,
    "RT": 915,
    "action": 1,
    "reward": 3.2
  },
  {
    "phase": "TASK",
    "condition": "Cond1",
    "trial_num": 11,
    "trial_length": 6,
    "click_num": 3,
    "RT": 910,
    "action": 1,
    "reward": 3.3
  },
  {
    "phase": "TASK",
    "condition": "Cond1",
    "trial_num": 11,
    "trial_length": 6,
    "click_num": 4,
    "RT": 712,
    "action": 1,
    "reward": 3.7
  },
  {
    "phase": "TASK",
    "condition": "Cond1",
    "trial_num": 11,
    "trial_length": 6,
    "click_num": 5,
    "RT": 816,
    "action": 1,
    "reward": 3.1
  },
  {
    "phase": "TASK",
    "condition": "Cond1",
    "trial_num": 11,
    "trial_length": 6,
    "click_num": 6,
    "RT": 891,
    "action": 0,
    "reward": 4.5
  },
  {
    "phase": "TASK",
    "condition": "Cond1",
    "trial_num": 12,
    "trial_length": 10,
    "click_num": 1,
    "RT": 836,
    "action": 1,
    "reward": 2.1
  },
  {
    "phase": "TASK",
    "condition": "Cond1",
    "trial_num": 12,
    "trial_length": 10,
    "click_num": 2,
    "RT": 1360,
    "action": 1,
    "reward": 2.2
  },
  {
    "phase": "TASK",
    "condition": "Cond1",
    "trial_num": 12,
    "trial_length": 10,
    "click_num": 3,
    "RT": 1008,
    "action": 1,
    "reward": 3.5
  },
  {
    "phase": "TASK",
    "condition": "Cond1",
    "trial_num": 12,
    "trial_length": 10,
    "click_num": 4,
    "RT": 896,
    "action": 1,
    "reward": 3.6
  },
  {
    "phase": "TASK",
    "condition": "Cond1",
    "trial_num": 12,
    "trial_length": 10,
    "click_num": 5,
    "RT": 955,
    "action": 1,
    "reward": 2.4
  },
  {
    "phase": "TASK",
    "condition": "Cond1",
    "trial_num": 12,
    "trial_length": 10,
    "click_num": 6,
    "RT": 941,
    "action": 1,
    "reward": 3.3
  },
  {
    "phase": "TASK",
    "condition": "Cond1",
    "trial_num": 12,
    "trial_length": 10,
    "click_num": 7,
    "RT": 960,
    "action": 1,
    "reward": 3.2
  },
  {
    "phase": "TASK",
    "condition": "Cond1",
    "trial_num": 12,
    "trial_length": 10,
    "click_num": 8,
    "RT": 944,
    "action": 1,
    "reward": 2.3
  },
  {
    "phase": "TASK",
    "condition": "Cond1",
    "trial_num": 12,
    "trial_length": 10,
    "click_num": 9,
    "RT": 1603,
    "action": 1,
    "reward": 3.5
  },
  {
    "phase": "TASK",
    "condition": "Cond1",
    "trial_num": 12,
    "trial_length": 10,
    "click_num": 10,
    "RT": 1261,
    "action": 0,
    "reward": 3.6
  },
  {
    "phase": "TASK",
    "condition": "Cond1",
    "trial_num": 13,
    "trial_length": 9,
    "click_num": 1,
    "RT": 1367,
    "action": 1,
    "reward": 2.4
  },
  {
    "phase": "TASK",
    "condition": "Cond1",
    "trial_num": 13,
    "trial_length": 9,
    "click_num": 2,
    "RT": 1256,
    "action": 1,
    "reward": 2.4
  },
  {
    "phase": "TASK",
    "condition": "Cond1",
    "trial_num": 13,
    "trial_length": 9,
    "click_num": 3,
    "RT": 871,
    "action": 1,
    "reward": 2.8
  },
  {
    "phase": "TASK",
    "condition": "Cond1",
    "trial_num": 13,
    "trial_length": 9,
    "click_num": 4,
    "RT": 945,
    "action": 1,
    "reward": 3.7
  },
  {
    "phase": "TASK",
    "condition": "Cond1",
    "trial_num": 13,
    "trial_length": 9,
    "click_num": 5,
    "RT": 1536,
    "action": 1,
    "reward": 3.1
  },
  {
    "phase": "TASK",
    "condition": "Cond1",
    "trial_num": 13,
    "trial_length": 9,
    "click_num": 6,
    "RT": 1440,
    "action": 1,
    "reward": 2.9
  },
  {
    "phase": "TASK",
    "condition": "Cond1",
    "trial_num": 13,
    "trial_length": 9,
    "click_num": 7,
    "RT": 1319,
    "action": 0,
    "reward": 3.7
  },
  {
    "phase": "TASK",
    "condition": "Cond1",
    "trial_num": 13,
    "trial_length": 9,
    "click_num": 8,
    "RT": 777,
    "action": 0,
    "reward": 3.7
  },
  {
    "phase": "TASK",
    "condition": "Cond1",
    "trial_num": 13,
    "trial_length": 9,
    "click_num": 9,
    "RT": 743,
    "action": 0,
    "reward": 3.7
  },
  {
    "phase": "TASK",
    "condition": "Cond1",
    "trial_num": 14,
    "trial_length": 6,
    "click_num": 1,
    "RT": 1907,
    "action": 1,
    "reward": 2.3
  },
  {
    "phase": "TASK",
    "condition": "Cond1",
    "trial_num": 14,
    "trial_length": 6,
    "click_num": 2,
    "RT": 1223,
    "action": 1,
    "reward": 2.8
  },
  {
    "phase": "TASK",
    "condition": "Cond1",
    "trial_num": 14,
    "trial_length": 6,
    "click_num": 3,
    "RT": 928,
    "action": 1,
    "reward": 2.8
  },
  {
    "phase": "TASK",
    "condition": "Cond1",
    "trial_num": 14,
    "trial_length": 6,
    "click_num": 4,
    "RT": 849,
    "action": 1,
    "reward": 2.8
  },
  {
    "phase": "TASK",
    "condition": "Cond1",
    "trial_num": 14,
    "trial_length": 6,
    "click_num": 5,
    "RT": 1383,
    "action": 1,
    "reward": 2.6
  },
  {
    "phase": "TASK",
    "condition": "Cond1",
    "trial_num": 14,
    "trial_length": 6,
    "click_num": 6,
    "RT": 1408,
    "action": 0,
    "reward": 2.8
  },
  {
    "phase": "TASK",
    "condition": "Cond1",
    "trial_num": 15,
    "trial_length": 9,
    "click_num": 1,
    "RT": 1253,
    "action": 1,
    "reward": 3.5
  },
  {
    "phase": "TASK",
    "condition": "Cond1",
    "trial_num": 15,
    "trial_length": 9,
    "click_num": 2,
    "RT": 1193,
    "action": 1,
    "reward": 2.9
  },
  {
    "phase": "TASK",
    "condition": "Cond1",
    "trial_num": 15,
    "trial_length": 9,
    "click_num": 3,
    "RT": 935,
    "action": 1,
    "reward": 2.5
  },
  {
    "phase": "TASK",
    "condition": "Cond1",
    "trial_num": 15,
    "trial_length": 9,
    "click_num": 4,
    "RT": 808,
    "action": 1,
    "reward": 2
  },
  {
    "phase": "TASK",
    "condition": "Cond1",
    "trial_num": 15,
    "trial_length": 9,
    "click_num": 5,
    "RT": 728,
    "action": 1,
    "reward": 2.9
  },
  {
    "phase": "TASK",
    "condition": "Cond1",
    "trial_num": 15,
    "trial_length": 9,
    "click_num": 6,
    "RT": 754,
    "action": 1,
    "reward": 1.5
  },
  {
    "phase": "TASK",
    "condition": "Cond1",
    "trial_num": 15,
    "trial_length": 9,
    "click_num": 7,
    "RT": 777,
    "action": 1,
    "reward": 2.6
  },
  {
    "phase": "TASK",
    "condition": "Cond1",
    "trial_num": 15,
    "trial_length": 9,
    "click_num": 8,
    "RT": 837,
    "action": 1,
    "reward": 3.5
  },
  {
    "phase": "TASK",
    "condition": "Cond1",
    "trial_num": 15,
    "trial_length": 9,
    "click_num": 9,
    "RT": 1729,
    "action": 0,
    "reward": 3.5
  },
  {
    "phase": "TASK",
    "condition": "Cond1",
    "trial_num": 16,
    "trial_length": 6,
    "click_num": 1,
    "RT": 1294,
    "action": 1,
    "reward": 3.9
  },
  {
    "phase": "TASK",
    "condition": "Cond1",
    "trial_num": 16,
    "trial_length": 6,
    "click_num": 2,
    "RT": 944,
    "action": 1,
    "reward": 2.6
  },
  {
    "phase": "TASK",
    "condition": "Cond1",
    "trial_num": 16,
    "trial_length": 6,
    "click_num": 3,
    "RT": 1103,
    "action": 0,
    "reward": 3.9
  },
  {
    "phase": "TASK",
    "condition": "Cond1",
    "trial_num": 16,
    "trial_length": 6,
    "click_num": 4,
    "RT": 569,
    "action": 0,
    "reward": 3.9
  },
  {
    "phase": "TASK",
    "condition": "Cond1",
    "trial_num": 16,
    "trial_length": 6,
    "click_num": 5,
    "RT": 712,
    "action": 0,
    "reward": 3.9
  },
  {
    "phase": "TASK",
    "condition": "Cond1",
    "trial_num": 16,
    "trial_length": 6,
    "click_num": 6,
    "RT": 696,
    "action": 0,
    "reward": 3.9
  },
  {
    "phase": "TASK",
    "condition": "Cond1",
    "trial_num": 17,
    "trial_length": 5,
    "click_num": 1,
    "RT": 1055,
    "action": 1,
    "reward": 3.9
  },
  {
    "phase": "TASK",
    "condition": "Cond1",
    "trial_num": 17,
    "trial_length": 5,
    "click_num": 2,
    "RT": 1760,
    "action": 0,
    "reward": 3.9
  },
  {
    "phase": "TASK",
    "condition": "Cond1",
    "trial_num": 17,
    "trial_length": 5,
    "click_num": 3,
    "RT": 647,
    "action": 0,
    "reward": 3.9
  },
  {
    "phase": "TASK",
    "condition": "Cond1",
    "trial_num": 17,
    "trial_length": 5,
    "click_num": 4,
    "RT": 872,
    "action": 0,
    "reward": 3.9
  },
  {
    "phase": "TASK",
    "condition": "Cond1",
    "trial_num": 17,
    "trial_length": 5,
    "click_num": 5,
    "RT": 625,
    "action": 0,
    "reward": 3.9
  },
  {
    "phase": "TASK",
    "condition": "Cond1",
    "trial_num": 18,
    "trial_length": 7,
    "click_num": 1,
    "RT": 1682,
    "action": 1,
    "reward": 3.2
  },
  {
    "phase": "TASK",
    "condition": "Cond1",
    "trial_num": 18,
    "trial_length": 7,
    "click_num": 2,
    "RT": 1319,
    "action": 1,
    "reward": 3.3
  },
  {
    "phase": "TASK",
    "condition": "Cond1",
    "trial_num": 18,
    "trial_length": 7,
    "click_num": 3,
    "RT": 816,
    "action": 1,
    "reward": 3.3
  },
  {
    "phase": "TASK",
    "condition": "Cond1",
    "trial_num": 18,
    "trial_length": 7,
    "click_num": 4,
    "RT": 950,
    "action": 1,
    "reward": 3.2
  },
  {
    "phase": "TASK",
    "condition": "Cond1",
    "trial_num": 18,
    "trial_length": 7,
    "click_num": 5,
    "RT": 832,
    "action": 1,
    "reward": 3.5
  },
  {
    "phase": "TASK",
    "condition": "Cond1",
    "trial_num": 18,
    "trial_length": 7,
    "click_num": 6,
    "RT": 1122,
    "action": 1,
    "reward": 3.2
  },
  {
    "phase": "TASK",
    "condition": "Cond1",
    "trial_num": 18,
    "trial_length": 7,
    "click_num": 7,
    "RT": 984,
    "action": 0,
    "reward": 3.5
  },
  {
    "phase": "TASK",
    "condition": "Cond1",
    "trial_num": 19,
    "trial_length": 8,
    "click_num": 1,
    "RT": 996,
    "action": 1,
    "reward": 3.4
  },
  {
    "phase": "TASK",
    "condition": "Cond1",
    "trial_num": 19,
    "trial_length": 8,
    "click_num": 2,
    "RT": 1337,
    "action": 1,
    "reward": 2.2
  },
  {
    "phase": "TASK",
    "condition": "Cond1",
    "trial_num": 19,
    "trial_length": 8,
    "click_num": 3,
    "RT": 1423,
    "action": 1,
    "reward": 1.9
  },
  {
    "phase": "TASK",
    "condition": "Cond1",
    "trial_num": 19,
    "trial_length": 8,
    "click_num": 4,
    "RT": 888,
    "action": 1,
    "reward": 3.1
  },
  {
    "phase": "TASK",
    "condition": "Cond1",
    "trial_num": 19,
    "trial_length": 8,
    "click_num": 5,
    "RT": 992,
    "action": 1,
    "reward": 3.7
  },
  {
    "phase": "TASK",
    "condition": "Cond1",
    "trial_num": 19,
    "trial_length": 8,
    "click_num": 6,
    "RT": 1311,
    "action": 0,
    "reward": 3.7
  },
  {
    "phase": "TASK",
    "condition": "Cond1",
    "trial_num": 19,
    "trial_length": 8,
    "click_num": 7,
    "RT": 571,
    "action": 0,
    "reward": 3.7
  },
  {
    "phase": "TASK",
    "condition": "Cond1",
    "trial_num": 19,
    "trial_length": 8,
    "click_num": 8,
    "RT": 560,
    "action": 0,
    "reward": 3.7
  },
  {
    "phase": "TASK",
    "condition": "Cond1",
    "trial_num": 20,
    "trial_length": 8,
    "click_num": 1,
    "RT": 1101,
    "action": 1,
    "reward": 3.5
  },
  {
    "phase": "TASK",
    "condition": "Cond1",
    "trial_num": 20,
    "trial_length": 8,
    "click_num": 2,
    "RT": 1216,
    "action": 1,
    "reward": 2.8
  },
  {
    "phase": "TASK",
    "condition": "Cond1",
    "trial_num": 20,
    "trial_length": 8,
    "click_num": 3,
    "RT": 800,
    "action": 1,
    "reward": 3.1
  },
  {
    "phase": "TASK",
    "condition": "Cond1",
    "trial_num": 20,
    "trial_length": 8,
    "click_num": 4,
    "RT": 825,
    "action": 1,
    "reward": 4.2
  },
  {
    "phase": "TASK",
    "condition": "Cond1",
    "trial_num": 20,
    "trial_length": 8,
    "click_num": 5,
    "RT": 1272,
    "action": 0,
    "reward": 4.2
  },
  {
    "phase": "TASK",
    "condition": "Cond1",
    "trial_num": 20,
    "trial_length": 8,
    "click_num": 6,
    "RT": 624,
    "action": 0,
    "reward": 4.2
  },
  {
    "phase": "TASK",
    "condition": "Cond1",
    "trial_num": 20,
    "trial_length": 8,
    "click_num": 7,
    "RT": 951,
    "action": 0,
    "reward": 4.2
  },
  {
    "phase": "TASK",
    "condition": "Cond1",
    "trial_num": 20,
    "trial_length": 8,
    "click_num": 8,
    "RT": 1768,
    "action": 0,
    "reward": 4.2
  },
  {
    "phase": "TASK",
    "condition": "Cond1",
    "trial_num": 21,
    "trial_length": 10,
    "click_num": 1,
    "RT": 1167,
    "action": 1,
    "reward": 3.4
  },
  {
    "phase": "TASK",
    "condition": "Cond1",
    "trial_num": 21,
    "trial_length": 10,
    "click_num": 2,
    "RT": 1039,
    "action": 1,
    "reward": 2.5
  },
  {
    "phase": "TASK",
    "condition": "Cond1",
    "trial_num": 21,
    "trial_length": 10,
    "click_num": 3,
    "RT": 855,
    "action": 1,
    "reward": 4.8
  },
  {
    "phase": "TASK",
    "condition": "Cond1",
    "trial_num": 21,
    "trial_length": 10,
    "click_num": 4,
    "RT": 3011,
    "action": 0,
    "reward": 4.8
  },
  {
    "phase": "TASK",
    "condition": "Cond1",
    "trial_num": 21,
    "trial_length": 10,
    "click_num": 5,
    "RT": 918,
    "action": 0,
    "reward": 4.8
  },
  {
    "phase": "TASK",
    "condition": "Cond1",
    "trial_num": 21,
    "trial_length": 10,
    "click_num": 6,
    "RT": 720,
    "action": 0,
    "reward": 4.8
  },
  {
    "phase": "TASK",
    "condition": "Cond1",
    "trial_num": 21,
    "trial_length": 10,
    "click_num": 7,
    "RT": 663,
    "action": 0,
    "reward": 4.8
  },
  {
    "phase": "TASK",
    "condition": "Cond1",
    "trial_num": 21,
    "trial_length": 10,
    "click_num": 8,
    "RT": 648,
    "action": 0,
    "reward": 4.8
  },
  {
    "phase": "TASK",
    "condition": "Cond1",
    "trial_num": 21,
    "trial_length": 10,
    "click_num": 9,
    "RT": 632,
    "action": 0,
    "reward": 4.8
  },
  {
    "phase": "TASK",
    "condition": "Cond1",
    "trial_num": 21,
    "trial_length": 10,
    "click_num": 10,
    "RT": 776,
    "action": 0,
    "reward": 4.8
  },
  {
    "phase": "TASK",
    "condition": "Cond1",
    "trial_num": 22,
    "trial_length": 8,
    "click_num": 1,
    "RT": 1006,
    "action": 1,
    "reward": 2.1
  },
  {
    "phase": "TASK",
    "condition": "Cond1",
    "trial_num": 22,
    "trial_length": 8,
    "click_num": 2,
    "RT": 1367,
    "action": 1,
    "reward": 2.8
  },
  {
    "phase": "TASK",
    "condition": "Cond1",
    "trial_num": 22,
    "trial_length": 8,
    "click_num": 3,
    "RT": 1313,
    "action": 1,
    "reward": 3.5
  },
  {
    "phase": "TASK",
    "condition": "Cond1",
    "trial_num": 22,
    "trial_length": 8,
    "click_num": 4,
    "RT": 1146,
    "action": 1,
    "reward": 2.3
  },
  {
    "phase": "TASK",
    "condition": "Cond1",
    "trial_num": 22,
    "trial_length": 8,
    "click_num": 5,
    "RT": 1046,
    "action": 1,
    "reward": 3
  },
  {
    "phase": "TASK",
    "condition": "Cond1",
    "trial_num": 22,
    "trial_length": 8,
    "click_num": 6,
    "RT": 984,
    "action": 1,
    "reward": 2.4
  },
  {
    "phase": "TASK",
    "condition": "Cond1",
    "trial_num": 22,
    "trial_length": 8,
    "click_num": 7,
    "RT": 1032,
    "action": 1,
    "reward": 2.4
  },
  {
    "phase": "TASK",
    "condition": "Cond1",
    "trial_num": 22,
    "trial_length": 8,
    "click_num": 8,
    "RT": 832,
    "action": 0,
    "reward": 3.5
  },
  {
    "phase": "TASK",
    "condition": "Cond1",
    "trial_num": 23,
    "trial_length": 8,
    "click_num": 1,
    "RT": 1037,
    "action": 1,
    "reward": 3.3
  },
  {
    "phase": "TASK",
    "condition": "Cond1",
    "trial_num": 23,
    "trial_length": 8,
    "click_num": 2,
    "RT": 1768,
    "action": 1,
    "reward": 3.3
  },
  {
    "phase": "TASK",
    "condition": "Cond1",
    "trial_num": 23,
    "trial_length": 8,
    "click_num": 3,
    "RT": 1049,
    "action": 1,
    "reward": 4
  },
  {
    "phase": "TASK",
    "condition": "Cond1",
    "trial_num": 23,
    "trial_length": 8,
    "click_num": 4,
    "RT": 2280,
    "action": 1,
    "reward": 2.2
  },
  {
    "phase": "TASK",
    "condition": "Cond1",
    "trial_num": 23,
    "trial_length": 8,
    "click_num": 5,
    "RT": 984,
    "action": 0,
    "reward": 4
  },
  {
    "phase": "TASK",
    "condition": "Cond1",
    "trial_num": 23,
    "trial_length": 8,
    "click_num": 6,
    "RT": 703,
    "action": 0,
    "reward": 4
  },
  {
    "phase": "TASK",
    "condition": "Cond1",
    "trial_num": 23,
    "trial_length": 8,
    "click_num": 7,
    "RT": 664,
    "action": 0,
    "reward": 4
  },
  {
    "phase": "TASK",
    "condition": "Cond1",
    "trial_num": 23,
    "trial_length": 8,
    "click_num": 8,
    "RT": 745,
    "action": 0,
    "reward": 4
  },
  {
    "phase": "TASK",
    "condition": "Cond1",
    "trial_num": 24,
    "trial_length": 5,
    "click_num": 1,
    "RT": 1040,
    "action": 1,
    "reward": 2.5
  },
  {
    "phase": "TASK",
    "condition": "Cond1",
    "trial_num": 24,
    "trial_length": 5,
    "click_num": 2,
    "RT": 2392,
    "action": 1,
    "reward": 2.3
  },
  {
    "phase": "TASK",
    "condition": "Cond1",
    "trial_num": 24,
    "trial_length": 5,
    "click_num": 3,
    "RT": 1014,
    "action": 1,
    "reward": 2.8
  },
  {
    "phase": "TASK",
    "condition": "Cond1",
    "trial_num": 24,
    "trial_length": 5,
    "click_num": 4,
    "RT": 1278,
    "action": 1,
    "reward": 3.7
  },
  {
    "phase": "TASK",
    "condition": "Cond1",
    "trial_num": 24,
    "trial_length": 5,
    "click_num": 5,
    "RT": 1642,
    "action": 0,
    "reward": 3.7
  },
  {
    "phase": "TASK",
    "condition": "Cond1",
    "trial_num": 25,
    "trial_length": 7,
    "click_num": 1,
    "RT": 1439,
    "action": 1,
    "reward": 2.9
  },
  {
    "phase": "TASK",
    "condition": "Cond1",
    "trial_num": 25,
    "trial_length": 7,
    "click_num": 2,
    "RT": 1665,
    "action": 1,
    "reward": 2.5
  },
  {
    "phase": "TASK",
    "condition": "Cond1",
    "trial_num": 25,
    "trial_length": 7,
    "click_num": 3,
    "RT": 888,
    "action": 1,
    "reward": 2.6
  },
  {
    "phase": "TASK",
    "condition": "Cond1",
    "trial_num": 25,
    "trial_length": 7,
    "click_num": 4,
    "RT": 794,
    "action": 1,
    "reward": 2.6
  },
  {
    "phase": "TASK",
    "condition": "Cond1",
    "trial_num": 25,
    "trial_length": 7,
    "click_num": 5,
    "RT": 918,
    "action": 1,
    "reward": 3
  },
  {
    "phase": "TASK",
    "condition": "Cond1",
    "trial_num": 25,
    "trial_length": 7,
    "click_num": 6,
    "RT": 1471,
    "action": 1,
    "reward": 2.9
  },
  {
    "phase": "TASK",
    "condition": "Cond1",
    "trial_num": 25,
    "trial_length": 7,
    "click_num": 7,
    "RT": 944,
    "action": 0,
    "reward": 3
  },
  {
    "phase": "TASK",
    "condition": "Cond1",
    "trial_num": 26,
    "trial_length": 9,
    "click_num": 1,
    "RT": 916,
    "action": 1,
    "reward": 2.4
  },
  {
    "phase": "TASK",
    "condition": "Cond1",
    "trial_num": 26,
    "trial_length": 9,
    "click_num": 2,
    "RT": 1121,
    "action": 1,
    "reward": 3
  },
  {
    "phase": "TASK",
    "condition": "Cond1",
    "trial_num": 26,
    "trial_length": 9,
    "click_num": 3,
    "RT": 991,
    "action": 1,
    "reward": 3.6
  },
  {
    "phase": "TASK",
    "condition": "Cond1",
    "trial_num": 26,
    "trial_length": 9,
    "click_num": 4,
    "RT": 924,
    "action": 1,
    "reward": 3.3
  },
  {
    "phase": "TASK",
    "condition": "Cond1",
    "trial_num": 26,
    "trial_length": 9,
    "click_num": 5,
    "RT": 965,
    "action": 1,
    "reward": 3.6
  },
  {
    "phase": "TASK",
    "condition": "Cond1",
    "trial_num": 26,
    "trial_length": 9,
    "click_num": 6,
    "RT": 1184,
    "action": 1,
    "reward": 3.2
  },
  {
    "phase": "TASK",
    "condition": "Cond1",
    "trial_num": 26,
    "trial_length": 9,
    "click_num": 7,
    "RT": 1615,
    "action": 1,
    "reward": 2.5
  },
  {
    "phase": "TASK",
    "condition": "Cond1",
    "trial_num": 26,
    "trial_length": 9,
    "click_num": 8,
    "RT": 825,
    "action": 0,
    "reward": 3.6
  },
  {
    "phase": "TASK",
    "condition": "Cond1",
    "trial_num": 26,
    "trial_length": 9,
    "click_num": 9,
    "RT": 688,
    "action": 0,
    "reward": 3.6
  },
  {
    "phase": "TASK",
    "condition": "Cond1",
    "trial_num": 27,
    "trial_length": 10,
    "click_num": 1,
    "RT": 2212,
    "action": 1,
    "reward": 3.2
  },
  {
    "phase": "TASK",
    "condition": "Cond1",
    "trial_num": 27,
    "trial_length": 10,
    "click_num": 2,
    "RT": 1898,
    "action": 1,
    "reward": 3.4
  },
  {
    "phase": "TASK",
    "condition": "Cond1",
    "trial_num": 27,
    "trial_length": 10,
    "click_num": 3,
    "RT": 710,
    "action": 1,
    "reward": 3.1
  },
  {
    "phase": "TASK",
    "condition": "Cond1",
    "trial_num": 27,
    "trial_length": 10,
    "click_num": 4,
    "RT": 799,
    "action": 1,
    "reward": 3.7
  },
  {
    "phase": "TASK",
    "condition": "Cond1",
    "trial_num": 27,
    "trial_length": 10,
    "click_num": 5,
    "RT": 1329,
    "action": 1,
    "reward": 2.4
  },
  {
    "phase": "TASK",
    "condition": "Cond1",
    "trial_num": 27,
    "trial_length": 10,
    "click_num": 6,
    "RT": 1147,
    "action": 1,
    "reward": 3.2
  },
  {
    "phase": "TASK",
    "condition": "Cond1",
    "trial_num": 27,
    "trial_length": 10,
    "click_num": 7,
    "RT": 822,
    "action": 1,
    "reward": 3.2
  },
  {
    "phase": "TASK",
    "condition": "Cond1",
    "trial_num": 27,
    "trial_length": 10,
    "click_num": 8,
    "RT": 1130,
    "action": 1,
    "reward": 3.4
  },
  {
    "phase": "TASK",
    "condition": "Cond1",
    "trial_num": 27,
    "trial_length": 10,
    "click_num": 9,
    "RT": 949,
    "action": 0,
    "reward": 3.7
  },
  {
    "phase": "TASK",
    "condition": "Cond1",
    "trial_num": 27,
    "trial_length": 10,
    "click_num": 10,
    "RT": 1145,
    "action": 0,
    "reward": 3.7
  },
  {
    "phase": "TASK",
    "condition": "Cond1",
    "trial_num": 28,
    "trial_length": 9,
    "click_num": 1,
    "RT": 1983,
    "action": 1,
    "reward": 2.9
  },
  {
    "phase": "TASK",
    "condition": "Cond1",
    "trial_num": 28,
    "trial_length": 9,
    "click_num": 2,
    "RT": 1142,
    "action": 1,
    "reward": 2.2
  },
  {
    "phase": "TASK",
    "condition": "Cond1",
    "trial_num": 28,
    "trial_length": 9,
    "click_num": 3,
    "RT": 799,
    "action": 1,
    "reward": 2.9
  },
  {
    "phase": "TASK",
    "condition": "Cond1",
    "trial_num": 28,
    "trial_length": 9,
    "click_num": 4,
    "RT": 866,
    "action": 1,
    "reward": 2.8
  },
  {
    "phase": "TASK",
    "condition": "Cond1",
    "trial_num": 28,
    "trial_length": 9,
    "click_num": 5,
    "RT": 759,
    "action": 1,
    "reward": 2.8
  },
  {
    "phase": "TASK",
    "condition": "Cond1",
    "trial_num": 28,
    "trial_length": 9,
    "click_num": 6,
    "RT": 784,
    "action": 1,
    "reward": 2.9
  },
  {
    "phase": "TASK",
    "condition": "Cond1",
    "trial_num": 28,
    "trial_length": 9,
    "click_num": 7,
    "RT": 952,
    "action": 1,
    "reward": 3.2
  },
  {
    "phase": "TASK",
    "condition": "Cond1",
    "trial_num": 28,
    "trial_length": 9,
    "click_num": 8,
    "RT": 1969,
    "action": 0,
    "reward": 3.2
  },
  {
    "phase": "TASK",
    "condition": "Cond1",
    "trial_num": 28,
    "trial_length": 9,
    "click_num": 9,
    "RT": 751,
    "action": 0,
    "reward": 3.2
  },
  {
    "phase": "TASK",
    "condition": "Cond1",
    "trial_num": 29,
    "trial_length": 10,
    "click_num": 1,
    "RT": 927,
    "action": 1,
    "reward": 3.3
  },
  {
    "phase": "TASK",
    "condition": "Cond1",
    "trial_num": 29,
    "trial_length": 10,
    "click_num": 2,
    "RT": 1472,
    "action": 1,
    "reward": 2
  },
  {
    "phase": "TASK",
    "condition": "Cond1",
    "trial_num": 29,
    "trial_length": 10,
    "click_num": 3,
    "RT": 800,
    "action": 1,
    "reward": 3.5
  },
  {
    "phase": "TASK",
    "condition": "Cond1",
    "trial_num": 29,
    "trial_length": 10,
    "click_num": 4,
    "RT": 840,
    "action": 1,
    "reward": 3.5
  },
  {
    "phase": "TASK",
    "condition": "Cond1",
    "trial_num": 29,
    "trial_length": 10,
    "click_num": 5,
    "RT": 856,
    "action": 1,
    "reward": 2.6
  },
  {
    "phase": "TASK",
    "condition": "Cond1",
    "trial_num": 29,
    "trial_length": 10,
    "click_num": 6,
    "RT": 784,
    "action": 1,
    "reward": 2.5
  },
  {
    "phase": "TASK",
    "condition": "Cond1",
    "trial_num": 29,
    "trial_length": 10,
    "click_num": 7,
    "RT": 848,
    "action": 1,
    "reward": 3.7
  },
  {
    "phase": "TASK",
    "condition": "Cond1",
    "trial_num": 29,
    "trial_length": 10,
    "click_num": 8,
    "RT": 1240,
    "action": 1,
    "reward": 3.2
  },
  {
    "phase": "TASK",
    "condition": "Cond1",
    "trial_num": 29,
    "trial_length": 10,
    "click_num": 9,
    "RT": 1567,
    "action": 0,
    "reward": 3.7
  },
  {
    "phase": "TASK",
    "condition": "Cond1",
    "trial_num": 29,
    "trial_length": 10,
    "click_num": 10,
    "RT": 729,
    "action": 0,
    "reward": 3.7
  },
  {
    "phase": "TASK",
    "condition": "Cond1",
    "trial_num": 30,
    "trial_length": 7,
    "click_num": 1,
    "RT": 1207,
    "action": 1,
    "reward": 2.6
  },
  {
    "phase": "TASK",
    "condition": "Cond1",
    "trial_num": 30,
    "trial_length": 7,
    "click_num": 2,
    "RT": 928,
    "action": 0,
    "reward": 2.6
  },
  {
    "phase": "TASK",
    "condition": "Cond1",
    "trial_num": 30,
    "trial_length": 7,
    "click_num": 3,
    "RT": 831,
    "action": 0,
    "reward": 2.6
  },
  {
    "phase": "TASK",
    "condition": "Cond1",
    "trial_num": 30,
    "trial_length": 7,
    "click_num": 4,
    "RT": 769,
    "action": 1,
    "reward": 3.4
  },
  {
    "phase": "TASK",
    "condition": "Cond1",
    "trial_num": 30,
    "trial_length": 7,
    "click_num": 5,
    "RT": 792,
    "action": 1,
    "reward": 2.5
  },
  {
    "phase": "TASK",
    "condition": "Cond1",
    "trial_num": 30,
    "trial_length": 7,
    "click_num": 6,
    "RT": 985,
    "action": 0,
    "reward": 3.4
  },
  {
    "phase": "TASK",
    "condition": "Cond1",
    "trial_num": 30,
    "trial_length": 7,
    "click_num": 7,
    "RT": 744,
    "action": 0,
    "reward": 3.4
  },
  {
    "phase": "TASK",
    "condition": "Cond1",
    "trial_num": 31,
    "trial_length": 5,
    "click_num": 1,
    "RT": 1030,
    "action": 1,
    "reward": 3.2
  },
  {
    "phase": "TASK",
    "condition": "Cond1",
    "trial_num": 31,
    "trial_length": 5,
    "click_num": 2,
    "RT": 880,
    "action": 1,
    "reward": 2.9
  },
  {
    "phase": "TASK",
    "condition": "Cond1",
    "trial_num": 31,
    "trial_length": 5,
    "click_num": 3,
    "RT": 1040,
    "action": 1,
    "reward": 2.2
  },
  {
    "phase": "TASK",
    "condition": "Cond1",
    "trial_num": 31,
    "trial_length": 5,
    "click_num": 4,
    "RT": 816,
    "action": 1,
    "reward": 3
  },
  {
    "phase": "TASK",
    "condition": "Cond1",
    "trial_num": 31,
    "trial_length": 5,
    "click_num": 5,
    "RT": 905,
    "action": 0,
    "reward": 3.2
  },
  {
    "phase": "TASK",
    "condition": "Cond1",
    "trial_num": 32,
    "trial_length": 7,
    "click_num": 1,
    "RT": 1039,
    "action": 1,
    "reward": 2.4
  },
  {
    "phase": "TASK",
    "condition": "Cond1",
    "trial_num": 32,
    "trial_length": 7,
    "click_num": 2,
    "RT": 1128,
    "action": 1,
    "reward": 3.9
  },
  {
    "phase": "TASK",
    "condition": "Cond1",
    "trial_num": 32,
    "trial_length": 7,
    "click_num": 3,
    "RT": 1849,
    "action": 1,
    "reward": 3.1
  },
  {
    "phase": "TASK",
    "condition": "Cond1",
    "trial_num": 32,
    "trial_length": 7,
    "click_num": 4,
    "RT": 2095,
    "action": 0,
    "reward": 3.9
  },
  {
    "phase": "TASK",
    "condition": "Cond1",
    "trial_num": 32,
    "trial_length": 7,
    "click_num": 5,
    "RT": 752,
    "action": 0,
    "reward": 3.9
  },
  {
    "phase": "TASK",
    "condition": "Cond1",
    "trial_num": 32,
    "trial_length": 7,
    "click_num": 6,
    "RT": 687,
    "action": 0,
    "reward": 3.9
  },
  {
    "phase": "TASK",
    "condition": "Cond1",
    "trial_num": 32,
    "trial_length": 7,
    "click_num": 7,
    "RT": 993,
    "action": 0,
    "reward": 3.9
  },
  {
    "phase": "TASK",
    "condition": "Cond1",
    "trial_num": 33,
    "trial_length": 8,
    "click_num": 1,
    "RT": 1022,
    "action": 1,
    "reward": 2.5
  },
  {
    "phase": "TASK",
    "condition": "Cond1",
    "trial_num": 33,
    "trial_length": 8,
    "click_num": 2,
    "RT": 1248,
    "action": 1,
    "reward": 3.2
  },
  {
    "phase": "TASK",
    "condition": "Cond1",
    "trial_num": 33,
    "trial_length": 8,
    "click_num": 3,
    "RT": 912,
    "action": 1,
    "reward": 2.2
  },
  {
    "phase": "TASK",
    "condition": "Cond1",
    "trial_num": 33,
    "trial_length": 8,
    "click_num": 4,
    "RT": 832,
    "action": 1,
    "reward": 2.3
  },
  {
    "phase": "TASK",
    "condition": "Cond1",
    "trial_num": 33,
    "trial_length": 8,
    "click_num": 5,
    "RT": 840,
    "action": 1,
    "reward": 2.6
  },
  {
    "phase": "TASK",
    "condition": "Cond1",
    "trial_num": 33,
    "trial_length": 8,
    "click_num": 6,
    "RT": 887,
    "action": 1,
    "reward": 2.6
  },
  {
    "phase": "TASK",
    "condition": "Cond1",
    "trial_num": 33,
    "trial_length": 8,
    "click_num": 7,
    "RT": 1008,
    "action": 1,
    "reward": 3.8
  },
  {
    "phase": "TASK",
    "condition": "Cond1",
    "trial_num": 33,
    "trial_length": 8,
    "click_num": 8,
    "RT": 1411,
    "action": 0,
    "reward": 3.8
  },
  {
    "phase": "TASK",
    "condition": "Cond1",
    "trial_num": 34,
    "trial_length": 7,
    "click_num": 1,
    "RT": 1058,
    "action": 1,
    "reward": 3.5
  },
  {
    "phase": "TASK",
    "condition": "Cond1",
    "trial_num": 34,
    "trial_length": 7,
    "click_num": 2,
    "RT": 1071,
    "action": 1,
    "reward": 4.1
  },
  {
    "phase": "TASK",
    "condition": "Cond1",
    "trial_num": 34,
    "trial_length": 7,
    "click_num": 3,
    "RT": 1272,
    "action": 0,
    "reward": 4.1
  },
  {
    "phase": "TASK",
    "condition": "Cond1",
    "trial_num": 34,
    "trial_length": 7,
    "click_num": 4,
    "RT": 619,
    "action": 0,
    "reward": 4.1
  },
  {
    "phase": "TASK",
    "condition": "Cond1",
    "trial_num": 34,
    "trial_length": 7,
    "click_num": 5,
    "RT": 584,
    "action": 0,
    "reward": 4.1
  },
  {
    "phase": "TASK",
    "condition": "Cond1",
    "trial_num": 34,
    "trial_length": 7,
    "click_num": 6,
    "RT": 661,
    "action": 0,
    "reward": 4.1
  },
  {
    "phase": "TASK",
    "condition": "Cond1",
    "trial_num": 34,
    "trial_length": 7,
    "click_num": 7,
    "RT": 761,
    "action": 0,
    "reward": 4.1
  },
  {
    "phase": "TASK",
    "condition": "Cond1",
    "trial_num": 35,
    "trial_length": 9,
    "click_num": 1,
    "RT": 957,
    "action": 1,
    "reward": 1.6
  },
  {
    "phase": "TASK",
    "condition": "Cond1",
    "trial_num": 35,
    "trial_length": 9,
    "click_num": 2,
    "RT": 1656,
    "action": 1,
    "reward": 3.6
  },
  {
    "phase": "TASK",
    "condition": "Cond1",
    "trial_num": 35,
    "trial_length": 9,
    "click_num": 3,
    "RT": 1336,
    "action": 1,
    "reward": 2.5
  },
  {
    "phase": "TASK",
    "condition": "Cond1",
    "trial_num": 35,
    "trial_length": 9,
    "click_num": 4,
    "RT": 1129,
    "action": 1,
    "reward": 3.3
  },
  {
    "phase": "TASK",
    "condition": "Cond1",
    "trial_num": 35,
    "trial_length": 9,
    "click_num": 5,
    "RT": 992,
    "action": 1,
    "reward": 2.7
  },
  {
    "phase": "TASK",
    "condition": "Cond1",
    "trial_num": 35,
    "trial_length": 9,
    "click_num": 6,
    "RT": 847,
    "action": 1,
    "reward": 2.9
  },
  {
    "phase": "TASK",
    "condition": "Cond1",
    "trial_num": 35,
    "trial_length": 9,
    "click_num": 7,
    "RT": 1032,
    "action": 1,
    "reward": 3.5
  },
  {
    "phase": "TASK",
    "condition": "Cond1",
    "trial_num": 35,
    "trial_length": 9,
    "click_num": 8,
    "RT": 985,
    "action": 0,
    "reward": 3.6
  },
  {
    "phase": "TASK",
    "condition": "Cond1",
    "trial_num": 35,
    "trial_length": 9,
    "click_num": 9,
    "RT": 855,
    "action": 0,
    "reward": 3.6
  },
  {
    "phase": "TASK",
    "condition": "Cond1",
    "trial_num": 36,
    "trial_length": 6,
    "click_num": 1,
    "RT": 1005,
    "action": 1,
    "reward": 2.5
  },
  {
    "phase": "TASK",
    "condition": "Cond1",
    "trial_num": 36,
    "trial_length": 6,
    "click_num": 2,
    "RT": 1144,
    "action": 1,
    "reward": 2.9
  },
  {
    "phase": "TASK",
    "condition": "Cond1",
    "trial_num": 36,
    "trial_length": 6,
    "click_num": 3,
    "RT": 1104,
    "action": 1,
    "reward": 2.5
  },
  {
    "phase": "TASK",
    "condition": "Cond1",
    "trial_num": 36,
    "trial_length": 6,
    "click_num": 4,
    "RT": 792,
    "action": 1,
    "reward": 3.8
  },
  {
    "phase": "TASK",
    "condition": "Cond1",
    "trial_num": 36,
    "trial_length": 6,
    "click_num": 5,
    "RT": 1360,
    "action": 0,
    "reward": 3.8
  },
  {
    "phase": "TASK",
    "condition": "Cond1",
    "trial_num": 36,
    "trial_length": 6,
    "click_num": 6,
    "RT": 640,
    "action": 0,
    "reward": 3.8
  },
  {
    "phase": "TASK",
    "condition": "Cond1",
    "trial_num": 37,
    "trial_length": 9,
    "click_num": 1,
    "RT": 830,
    "action": 1,
    "reward": 3
  },
  {
    "phase": "TASK",
    "condition": "Cond1",
    "trial_num": 37,
    "trial_length": 9,
    "click_num": 2,
    "RT": 1562,
    "action": 1,
    "reward": 2.4
  },
  {
    "phase": "TASK",
    "condition": "Cond1",
    "trial_num": 37,
    "trial_length": 9,
    "click_num": 3,
    "RT": 1200,
    "action": 1,
    "reward": 3.5
  },
  {
    "phase": "TASK",
    "condition": "Cond1",
    "trial_num": 37,
    "trial_length": 9,
    "click_num": 4,
    "RT": 1136,
    "action": 1,
    "reward": 3.8
  },
  {
    "phase": "TASK",
    "condition": "Cond1",
    "trial_num": 37,
    "trial_length": 9,
    "click_num": 5,
    "RT": 1127,
    "action": 0,
    "reward": 3.8
  },
  {
    "phase": "TASK",
    "condition": "Cond1",
    "trial_num": 37,
    "trial_length": 9,
    "click_num": 6,
    "RT": 752,
    "action": 0,
    "reward": 3.8
  },
  {
    "phase": "TASK",
    "condition": "Cond1",
    "trial_num": 37,
    "trial_length": 9,
    "click_num": 7,
    "RT": 897,
    "action": 0,
    "reward": 3.8
  },
  {
    "phase": "TASK",
    "condition": "Cond1",
    "trial_num": 37,
    "trial_length": 9,
    "click_num": 8,
    "RT": 599,
    "action": 0,
    "reward": 3.8
  },
  {
    "phase": "TASK",
    "condition": "Cond1",
    "trial_num": 37,
    "trial_length": 9,
    "click_num": 9,
    "RT": 737,
    "action": 0,
    "reward": 3.8
  },
  {
    "phase": "TASK",
    "condition": "Cond1",
    "trial_num": 38,
    "trial_length": 9,
    "click_num": 1,
    "RT": 1548,
    "action": 1,
    "reward": 3.1
  },
  {
    "phase": "TASK",
    "condition": "Cond1",
    "trial_num": 38,
    "trial_length": 9,
    "click_num": 2,
    "RT": 1249,
    "action": 0,
    "reward": 3.1
  },
  {
    "phase": "TASK",
    "condition": "Cond1",
    "trial_num": 38,
    "trial_length": 9,
    "click_num": 3,
    "RT": 792,
    "action": 1,
    "reward": 1.9
  },
  {
    "phase": "TASK",
    "condition": "Cond1",
    "trial_num": 38,
    "trial_length": 9,
    "click_num": 4,
    "RT": 895,
    "action": 1,
    "reward": 2.8
  },
  {
    "phase": "TASK",
    "condition": "Cond1",
    "trial_num": 38,
    "trial_length": 9,
    "click_num": 5,
    "RT": 936,
    "action": 1,
    "reward": 1.6
  },
  {
    "phase": "TASK",
    "condition": "Cond1",
    "trial_num": 38,
    "trial_length": 9,
    "click_num": 6,
    "RT": 817,
    "action": 1,
    "reward": 3.1
  },
  {
    "phase": "TASK",
    "condition": "Cond1",
    "trial_num": 38,
    "trial_length": 9,
    "click_num": 7,
    "RT": 1168,
    "action": 1,
    "reward": 2.5
  },
  {
    "phase": "TASK",
    "condition": "Cond1",
    "trial_num": 38,
    "trial_length": 9,
    "click_num": 8,
    "RT": 896,
    "action": 1,
    "reward": 3.1
  },
  {
    "phase": "TASK",
    "condition": "Cond1",
    "trial_num": 38,
    "trial_length": 9,
    "click_num": 9,
    "RT": 976,
    "action": 0,
    "reward": 3.1
  },
  {
    "phase": "TASK",
    "condition": "Cond1",
    "trial_num": 39,
    "trial_length": 5,
    "click_num": 1,
    "RT": 1021,
    "action": 1,
    "reward": 3.2
  },
  {
    "phase": "TASK",
    "condition": "Cond1",
    "trial_num": 39,
    "trial_length": 5,
    "click_num": 2,
    "RT": 1522,
    "action": 1,
    "reward": 2.7
  },
  {
    "phase": "TASK",
    "condition": "Cond1",
    "trial_num": 39,
    "trial_length": 5,
    "click_num": 3,
    "RT": 1163,
    "action": 1,
    "reward": 4.1
  },
  {
    "phase": "TASK",
    "condition": "Cond1",
    "trial_num": 39,
    "trial_length": 5,
    "click_num": 4,
    "RT": 1005,
    "action": 0,
    "reward": 4.1
  },
  {
    "phase": "TASK",
    "condition": "Cond1",
    "trial_num": 39,
    "trial_length": 5,
    "click_num": 5,
    "RT": 576,
    "action": 0,
    "reward": 4.1
  },
  {
    "phase": "TASK",
    "condition": "Cond1",
    "trial_num": 40,
    "trial_length": 5,
    "click_num": 1,
    "RT": 973,
    "action": 1,
    "reward": 3.4
  },
  {
    "phase": "TASK",
    "condition": "Cond1",
    "trial_num": 40,
    "trial_length": 5,
    "click_num": 2,
    "RT": 1033,
    "action": 1,
    "reward": 2.9
  },
  {
    "phase": "TASK",
    "condition": "Cond1",
    "trial_num": 40,
    "trial_length": 5,
    "click_num": 3,
    "RT": 880,
    "action": 1,
    "reward": 3.1
  },
  {
    "phase": "TASK",
    "condition": "Cond1",
    "trial_num": 40,
    "trial_length": 5,
    "click_num": 4,
    "RT": 1408,
    "action": 1,
    "reward": 3.4
  },
  {
    "phase": "TASK",
    "condition": "Cond1",
    "trial_num": 40,
    "trial_length": 5,
    "click_num": 5,
    "RT": 904,
    "action": 0,
    "reward": 3.4
  },
  {
    "phase": "TASK",
    "condition": "Cond1",
    "trial_num": 41,
    "trial_length": 7,
    "click_num": 1,
    "RT": 1224,
    "action": 1,
    "reward": 2.6
  },
  {
    "phase": "TASK",
    "condition": "Cond1",
    "trial_num": 41,
    "trial_length": 7,
    "click_num": 2,
    "RT": 902,
    "action": 1,
    "reward": 2.8
  },
  {
    "phase": "TASK",
    "condition": "Cond1",
    "trial_num": 41,
    "trial_length": 7,
    "click_num": 3,
    "RT": 697,
    "action": 1,
    "reward": 2.3
  },
  {
    "phase": "TASK",
    "condition": "Cond1",
    "trial_num": 41,
    "trial_length": 7,
    "click_num": 4,
    "RT": 743,
    "action": 1,
    "reward": 2.8
  },
  {
    "phase": "TASK",
    "condition": "Cond1",
    "trial_num": 41,
    "trial_length": 7,
    "click_num": 5,
    "RT": 1007,
    "action": 1,
    "reward": 3.5
  },
  {
    "phase": "TASK",
    "condition": "Cond1",
    "trial_num": 41,
    "trial_length": 7,
    "click_num": 6,
    "RT": 2034,
    "action": 0,
    "reward": 3.5
  },
  {
    "phase": "TASK",
    "condition": "Cond1",
    "trial_num": 41,
    "trial_length": 7,
    "click_num": 7,
    "RT": 688,
    "action": 0,
    "reward": 3.5
  },
  {
    "phase": "TASK",
    "condition": "Cond1",
    "trial_num": 42,
    "trial_length": 6,
    "click_num": 1,
    "RT": 830,
    "action": 1,
    "reward": 2.9
  },
  {
    "phase": "TASK",
    "condition": "Cond1",
    "trial_num": 42,
    "trial_length": 6,
    "click_num": 2,
    "RT": 1086,
    "action": 1,
    "reward": 2.3
  },
  {
    "phase": "TASK",
    "condition": "Cond1",
    "trial_num": 42,
    "trial_length": 6,
    "click_num": 3,
    "RT": 829,
    "action": 1,
    "reward": 3.1
  },
  {
    "phase": "TASK",
    "condition": "Cond1",
    "trial_num": 42,
    "trial_length": 6,
    "click_num": 4,
    "RT": 1094,
    "action": 1,
    "reward": 2.8
  },
  {
    "phase": "TASK",
    "condition": "Cond1",
    "trial_num": 42,
    "trial_length": 6,
    "click_num": 5,
    "RT": 1192,
    "action": 1,
    "reward": 1.8
  },
  {
    "phase": "TASK",
    "condition": "Cond1",
    "trial_num": 42,
    "trial_length": 6,
    "click_num": 6,
    "RT": 1315,
    "action": 0,
    "reward": 3.1
  },
  {
    "phase": "TASK",
    "condition": "Cond1",
    "trial_num": 43,
    "trial_length": 10,
    "click_num": 1,
    "RT": 996,
    "action": 1,
    "reward": 2.2
  },
  {
    "phase": "TASK",
    "condition": "Cond1",
    "trial_num": 43,
    "trial_length": 10,
    "click_num": 2,
    "RT": 952,
    "action": 1,
    "reward": 3.2
  },
  {
    "phase": "TASK",
    "condition": "Cond1",
    "trial_num": 43,
    "trial_length": 10,
    "click_num": 3,
    "RT": 848,
    "action": 1,
    "reward": 2.6
  },
  {
    "phase": "TASK",
    "condition": "Cond1",
    "trial_num": 43,
    "trial_length": 10,
    "click_num": 4,
    "RT": 716,
    "action": 1,
    "reward": 2.5
  },
  {
    "phase": "TASK",
    "condition": "Cond1",
    "trial_num": 43,
    "trial_length": 10,
    "click_num": 5,
    "RT": 971,
    "action": 1,
    "reward": 3
  },
  {
    "phase": "TASK",
    "condition": "Cond1",
    "trial_num": 43,
    "trial_length": 10,
    "click_num": 6,
    "RT": 745,
    "action": 1,
    "reward": 2.5
  },
  {
    "phase": "TASK",
    "condition": "Cond1",
    "trial_num": 43,
    "trial_length": 10,
    "click_num": 7,
    "RT": 1193,
    "action": 1,
    "reward": 2.6
  },
  {
    "phase": "TASK",
    "condition": "Cond1",
    "trial_num": 43,
    "trial_length": 10,
    "click_num": 8,
    "RT": 719,
    "action": 1,
    "reward": 2.9
  },
  {
    "phase": "TASK",
    "condition": "Cond1",
    "trial_num": 43,
    "trial_length": 10,
    "click_num": 9,
    "RT": 728,
    "action": 0,
    "reward": 3.2
  },
  {
    "phase": "TASK",
    "condition": "Cond1",
    "trial_num": 43,
    "trial_length": 10,
    "click_num": 10,
    "RT": 675,
    "action": 0,
    "reward": 3.2
  },
  {
    "phase": "TASK",
    "condition": "Cond1",
    "trial_num": 44,
    "trial_length": 7,
    "click_num": 1,
    "RT": 866,
    "action": 1,
    "reward": 2.7
  },
  {
    "phase": "TASK",
    "condition": "Cond1",
    "trial_num": 44,
    "trial_length": 7,
    "click_num": 2,
    "RT": 770,
    "action": 1,
    "reward": 3.1
  },
  {
    "phase": "TASK",
    "condition": "Cond1",
    "trial_num": 44,
    "trial_length": 7,
    "click_num": 3,
    "RT": 744,
    "action": 1,
    "reward": 1.8
  },
  {
    "phase": "TASK",
    "condition": "Cond1",
    "trial_num": 44,
    "trial_length": 7,
    "click_num": 4,
    "RT": 767,
    "action": 1,
    "reward": 3.6
  },
  {
    "phase": "TASK",
    "condition": "Cond1",
    "trial_num": 44,
    "trial_length": 7,
    "click_num": 5,
    "RT": 1210,
    "action": 1,
    "reward": 2.4
  },
  {
    "phase": "TASK",
    "condition": "Cond1",
    "trial_num": 44,
    "trial_length": 7,
    "click_num": 6,
    "RT": 814,
    "action": 0,
    "reward": 3.6
  },
  {
    "phase": "TASK",
    "condition": "Cond1",
    "trial_num": 44,
    "trial_length": 7,
    "click_num": 7,
    "RT": 632,
    "action": 0,
    "reward": 3.6
  },
  {
    "phase": "TASK",
    "condition": "Cond1",
    "trial_num": 45,
    "trial_length": 8,
    "click_num": 1,
    "RT": 840,
    "action": 1,
    "reward": 2.9
  },
  {
    "phase": "TASK",
    "condition": "Cond1",
    "trial_num": 45,
    "trial_length": 8,
    "click_num": 2,
    "RT": 840,
    "action": 1,
    "reward": 2.3
  },
  {
    "phase": "TASK",
    "condition": "Cond1",
    "trial_num": 45,
    "trial_length": 8,
    "click_num": 3,
    "RT": 1839,
    "action": 1,
    "reward": 3.9
  },
  {
    "phase": "TASK",
    "condition": "Cond1",
    "trial_num": 45,
    "trial_length": 8,
    "click_num": 4,
    "RT": 1153,
    "action": 1,
    "reward": 4.2
  },
  {
    "phase": "TASK",
    "condition": "Cond1",
    "trial_num": 45,
    "trial_length": 8,
    "click_num": 5,
    "RT": 942,
    "action": 0,
    "reward": 4.2
  },
  {
    "phase": "TASK",
    "condition": "Cond1",
    "trial_num": 45,
    "trial_length": 8,
    "click_num": 6,
    "RT": 770,
    "action": 0,
    "reward": 4.2
  },
  {
    "phase": "TASK",
    "condition": "Cond1",
    "trial_num": 45,
    "trial_length": 8,
    "click_num": 7,
    "RT": 1311,
    "action": 0,
    "reward": 4.2
  },
  {
    "phase": "TASK",
    "condition": "Cond1",
    "trial_num": 45,
    "trial_length": 8,
    "click_num": 8,
    "RT": 632,
    "action": 0,
    "reward": 4.2
  },
  {
    "phase": "TASK",
    "condition": "Cond1",
    "trial_num": 46,
    "trial_length": 5,
    "click_num": 1,
    "RT": 1048,
    "action": 1,
    "reward": 2
  },
  {
    "phase": "TASK",
    "condition": "Cond1",
    "trial_num": 46,
    "trial_length": 5,
    "click_num": 2,
    "RT": 1566,
    "action": 1,
    "reward": 3
  },
  {
    "phase": "TASK",
    "condition": "Cond1",
    "trial_num": 46,
    "trial_length": 5,
    "click_num": 3,
    "RT": 1408,
    "action": 1,
    "reward": 3.9
  },
  {
    "phase": "TASK",
    "condition": "Cond1",
    "trial_num": 46,
    "trial_length": 5,
    "click_num": 4,
    "RT": 1220,
    "action": 0,
    "reward": 3.9
  },
  {
    "phase": "TASK",
    "condition": "Cond1",
    "trial_num": 46,
    "trial_length": 5,
    "click_num": 5,
    "RT": 672,
    "action": 0,
    "reward": 3.9
  },
  {
    "phase": "TASK",
    "condition": "Cond1",
    "trial_num": 47,
    "trial_length": 8,
    "click_num": 1,
    "RT": 1014,
    "action": 1,
    "reward": 3.7
  },
  {
    "phase": "TASK",
    "condition": "Cond1",
    "trial_num": 47,
    "trial_length": 8,
    "click_num": 2,
    "RT": 1327,
    "action": 1,
    "reward": 3.1
  },
  {
    "phase": "TASK",
    "condition": "Cond1",
    "trial_num": 47,
    "trial_length": 8,
    "click_num": 3,
    "RT": 809,
    "action": 1,
    "reward": 1.7
  },
  {
    "phase": "TASK",
    "condition": "Cond1",
    "trial_num": 47,
    "trial_length": 8,
    "click_num": 4,
    "RT": 1064,
    "action": 1,
    "reward": 3.1
  },
  {
    "phase": "TASK",
    "condition": "Cond1",
    "trial_num": 47,
    "trial_length": 8,
    "click_num": 5,
    "RT": 775,
    "action": 0,
    "reward": 3.7
  },
  {
    "phase": "TASK",
    "condition": "Cond1",
    "trial_num": 47,
    "trial_length": 8,
    "click_num": 6,
    "RT": 544,
    "action": 0,
    "reward": 3.7
  },
  {
    "phase": "TASK",
    "condition": "Cond1",
    "trial_num": 47,
    "trial_length": 8,
    "click_num": 7,
    "RT": 600,
    "action": 0,
    "reward": 3.7
  },
  {
    "phase": "TASK",
    "condition": "Cond1",
    "trial_num": 47,
    "trial_length": 8,
    "click_num": 8,
    "RT": 913,
    "action": 0,
    "reward": 3.7
  },
  {
    "phase": "TASK",
    "condition": "Cond1",
    "trial_num": 48,
    "trial_length": 6,
    "click_num": 1,
    "RT": 951,
    "action": 1,
    "reward": 2.9
  },
  {
    "phase": "TASK",
    "condition": "Cond1",
    "trial_num": 48,
    "trial_length": 6,
    "click_num": 2,
    "RT": 887,
    "action": 1,
    "reward": 3
  },
  {
    "phase": "TASK",
    "condition": "Cond1",
    "trial_num": 48,
    "trial_length": 6,
    "click_num": 3,
    "RT": 952,
    "action": 1,
    "reward": 3.8
  },
  {
    "phase": "TASK",
    "condition": "Cond1",
    "trial_num": 48,
    "trial_length": 6,
    "click_num": 4,
    "RT": 1138,
    "action": 0,
    "reward": 3.8
  },
  {
    "phase": "TASK",
    "condition": "Cond1",
    "trial_num": 48,
    "trial_length": 6,
    "click_num": 5,
    "RT": 494,
    "action": 0,
    "reward": 3.8
  },
  {
    "phase": "TASK",
    "condition": "Cond1",
    "trial_num": 48,
    "trial_length": 6,
    "click_num": 6,
    "RT": 705,
    "action": 0,
    "reward": 3.8
  },
  {
    "phase": "TASK",
    "condition": "Cond1",
    "trial_num": 49,
    "trial_length": 8,
    "click_num": 1,
    "RT": 1069,
    "action": 1,
    "reward": 2.5
  },
  {
    "phase": "TASK",
    "condition": "Cond1",
    "trial_num": 49,
    "trial_length": 8,
    "click_num": 2,
    "RT": 1072,
    "action": 1,
    "reward": 2.3
  },
  {
    "phase": "TASK",
    "condition": "Cond1",
    "trial_num": 49,
    "trial_length": 8,
    "click_num": 3,
    "RT": 736,
    "action": 1,
    "reward": 2.9
  },
  {
    "phase": "TASK",
    "condition": "Cond1",
    "trial_num": 49,
    "trial_length": 8,
    "click_num": 4,
    "RT": 864,
    "action": 1,
    "reward": 3.6
  },
  {
    "phase": "TASK",
    "condition": "Cond1",
    "trial_num": 49,
    "trial_length": 8,
    "click_num": 5,
    "RT": 1072,
    "action": 1,
    "reward": 3.1
  },
  {
    "phase": "TASK",
    "condition": "Cond1",
    "trial_num": 49,
    "trial_length": 8,
    "click_num": 6,
    "RT": 864,
    "action": 1,
    "reward": 2.5
  },
  {
    "phase": "TASK",
    "condition": "Cond1",
    "trial_num": 49,
    "trial_length": 8,
    "click_num": 7,
    "RT": 992,
    "action": 0,
    "reward": 3.6
  },
  {
    "phase": "TASK",
    "condition": "Cond1",
    "trial_num": 49,
    "trial_length": 8,
    "click_num": 8,
    "RT": 840,
    "action": 0,
    "reward": 3.6
  },
  {
    "phase": "TASK",
    "condition": "Cond1",
    "trial_num": 50,
    "trial_length": 9,
    "click_num": 1,
    "RT": 2280,
    "action": 1,
    "reward": 2.1
  },
  {
    "phase": "TASK",
    "condition": "Cond1",
    "trial_num": 50,
    "trial_length": 9,
    "click_num": 2,
    "RT": 2495,
    "action": 1,
    "reward": 2.6
  },
  {
    "phase": "TASK",
    "condition": "Cond1",
    "trial_num": 50,
    "trial_length": 9,
    "click_num": 3,
    "RT": 1008,
    "action": 1,
    "reward": 2.4
  },
  {
    "phase": "TASK",
    "condition": "Cond1",
    "trial_num": 50,
    "trial_length": 9,
    "click_num": 4,
    "RT": 651,
    "action": 1,
    "reward": 3.1
  },
  {
    "phase": "TASK",
    "condition": "Cond1",
    "trial_num": 50,
    "trial_length": 9,
    "click_num": 5,
    "RT": 805,
    "action": 1,
    "reward": 3.1
  },
  {
    "phase": "TASK",
    "condition": "Cond1",
    "trial_num": 50,
    "trial_length": 9,
    "click_num": 6,
    "RT": 760,
    "action": 1,
    "reward": 2.8
  },
  {
    "phase": "TASK",
    "condition": "Cond1",
    "trial_num": 50,
    "trial_length": 9,
    "click_num": 7,
    "RT": 799,
    "action": 1,
    "reward": 2.3
  },
  {
    "phase": "TASK",
    "condition": "Cond1",
    "trial_num": 50,
    "trial_length": 9,
    "click_num": 8,
    "RT": 1621,
    "action": 0,
    "reward": 3.1
  },
  {
    "phase": "TASK",
    "condition": "Cond1",
    "trial_num": 50,
    "trial_length": 9,
    "click_num": 9,
    "RT": 781,
    "action": 0,
    "reward": 3.1
  },
  {
    "phase": "TASK",
    "condition": "Cond1",
    "trial_num": 51,
    "trial_length": 6,
    "click_num": 1,
    "RT": 926,
    "action": 1,
    "reward": 3.1
  },
  {
    "phase": "TASK",
    "condition": "Cond1",
    "trial_num": 51,
    "trial_length": 6,
    "click_num": 2,
    "RT": 1275,
    "action": 1,
    "reward": 3.4
  },
  {
    "phase": "TASK",
    "condition": "Cond1",
    "trial_num": 51,
    "trial_length": 6,
    "click_num": 3,
    "RT": 772,
    "action": 1,
    "reward": 2.7
  },
  {
    "phase": "TASK",
    "condition": "Cond1",
    "trial_num": 51,
    "trial_length": 6,
    "click_num": 4,
    "RT": 778,
    "action": 1,
    "reward": 4.4
  },
  {
    "phase": "TASK",
    "condition": "Cond1",
    "trial_num": 51,
    "trial_length": 6,
    "click_num": 5,
    "RT": 1047,
    "action": 0,
    "reward": 4.4
  },
  {
    "phase": "TASK",
    "condition": "Cond1",
    "trial_num": 51,
    "trial_length": 6,
    "click_num": 6,
    "RT": 648,
    "action": 0,
    "reward": 4.4
  },
  {
    "phase": "TASK",
    "condition": "Cond1",
    "trial_num": 52,
    "trial_length": 5,
    "click_num": 1,
    "RT": 818,
    "action": 1,
    "reward": 2.7
  },
  {
    "phase": "TASK",
    "condition": "Cond1",
    "trial_num": 52,
    "trial_length": 5,
    "click_num": 2,
    "RT": 1365,
    "action": 1,
    "reward": 3.6
  },
  {
    "phase": "TASK",
    "condition": "Cond1",
    "trial_num": 52,
    "trial_length": 5,
    "click_num": 3,
    "RT": 816,
    "action": 1,
    "reward": 2.7
  },
  {
    "phase": "TASK",
    "condition": "Cond1",
    "trial_num": 52,
    "trial_length": 5,
    "click_num": 4,
    "RT": 1039,
    "action": 1,
    "reward": 3.3
  },
  {
    "phase": "TASK",
    "condition": "Cond1",
    "trial_num": 52,
    "trial_length": 5,
    "click_num": 5,
    "RT": 792,
    "action": 0,
    "reward": 3.6
  },
  {
    "phase": "TASK",
    "condition": "Cond1",
    "trial_num": 53,
    "trial_length": 6,
    "click_num": 1,
    "RT": 788,
    "action": 1,
    "reward": 3.2
  },
  {
    "phase": "TASK",
    "condition": "Cond1",
    "trial_num": 53,
    "trial_length": 6,
    "click_num": 2,
    "RT": 848,
    "action": 1,
    "reward": 2.6
  },
  {
    "phase": "TASK",
    "condition": "Cond1",
    "trial_num": 53,
    "trial_length": 6,
    "click_num": 3,
    "RT": 737,
    "action": 1,
    "reward": 1.7
  },
  {
    "phase": "TASK",
    "condition": "Cond1",
    "trial_num": 53,
    "trial_length": 6,
    "click_num": 4,
    "RT": 815,
    "action": 1,
    "reward": 2.2
  },
  {
    "phase": "TASK",
    "condition": "Cond1",
    "trial_num": 53,
    "trial_length": 6,
    "click_num": 5,
    "RT": 1856,
    "action": 1,
    "reward": 2.8
  },
  {
    "phase": "TASK",
    "condition": "Cond1",
    "trial_num": 53,
    "trial_length": 6,
    "click_num": 6,
    "RT": 712,
    "action": 0,
    "reward": 3.2
  },
  {
    "phase": "TASK",
    "condition": "Cond1",
    "trial_num": 54,
    "trial_length": 9,
    "click_num": 1,
    "RT": 817,
    "action": 1,
    "reward": 2.9
  },
  {
    "phase": "TASK",
    "condition": "Cond1",
    "trial_num": 54,
    "trial_length": 9,
    "click_num": 2,
    "RT": 775,
    "action": 1,
    "reward": 3.1
  },
  {
    "phase": "TASK",
    "condition": "Cond1",
    "trial_num": 54,
    "trial_length": 9,
    "click_num": 3,
    "RT": 985,
    "action": 1,
    "reward": 3.5
  },
  {
    "phase": "TASK",
    "condition": "Cond1",
    "trial_num": 54,
    "trial_length": 9,
    "click_num": 4,
    "RT": 1024,
    "action": 1,
    "reward": 3.6
  },
  {
    "phase": "TASK",
    "condition": "Cond1",
    "trial_num": 54,
    "trial_length": 9,
    "click_num": 5,
    "RT": 783,
    "action": 1,
    "reward": 3.2
  },
  {
    "phase": "TASK",
    "condition": "Cond1",
    "trial_num": 54,
    "trial_length": 9,
    "click_num": 6,
    "RT": 672,
    "action": 1,
    "reward": 1.9
  },
  {
    "phase": "TASK",
    "condition": "Cond1",
    "trial_num": 54,
    "trial_length": 9,
    "click_num": 7,
    "RT": 758,
    "action": 1,
    "reward": 4
  },
  {
    "phase": "TASK",
    "condition": "Cond1",
    "trial_num": 54,
    "trial_length": 9,
    "click_num": 8,
    "RT": 1082,
    "action": 0,
    "reward": 4
  },
  {
    "phase": "TASK",
    "condition": "Cond1",
    "trial_num": 54,
    "trial_length": 9,
    "click_num": 9,
    "RT": 689,
    "action": 0,
    "reward": 4
  },
  {
    "phase": "TASK",
    "condition": "Cond1",
    "trial_num": 55,
    "trial_length": 8,
    "click_num": 1,
    "RT": 952,
    "action": 1,
    "reward": 3
  },
  {
    "phase": "TASK",
    "condition": "Cond1",
    "trial_num": 55,
    "trial_length": 8,
    "click_num": 2,
    "RT": 1095,
    "action": 1,
    "reward": 2.3
  },
  {
    "phase": "TASK",
    "condition": "Cond1",
    "trial_num": 55,
    "trial_length": 8,
    "click_num": 3,
    "RT": 671,
    "action": 1,
    "reward": 3.7
  },
  {
    "phase": "TASK",
    "condition": "Cond1",
    "trial_num": 55,
    "trial_length": 8,
    "click_num": 4,
    "RT": 688,
    "action": 1,
    "reward": 2.6
  },
  {
    "phase": "TASK",
    "condition": "Cond1",
    "trial_num": 55,
    "trial_length": 8,
    "click_num": 5,
    "RT": 771,
    "action": 1,
    "reward": 2.8
  },
  {
    "phase": "TASK",
    "condition": "Cond1",
    "trial_num": 55,
    "trial_length": 8,
    "click_num": 6,
    "RT": 741,
    "action": 1,
    "reward": 3
  },
  {
    "phase": "TASK",
    "condition": "Cond1",
    "trial_num": 55,
    "trial_length": 8,
    "click_num": 7,
    "RT": 1347,
    "action": 1,
    "reward": 1.9
  },
  {
    "phase": "TASK",
    "condition": "Cond1",
    "trial_num": 55,
    "trial_length": 8,
    "click_num": 8,
    "RT": 709,
    "action": 0,
    "reward": 3.7
  },
  {
    "phase": "TASK",
    "condition": "Cond1",
    "trial_num": 56,
    "trial_length": 5,
    "click_num": 1,
    "RT": 862,
    "action": 1,
    "reward": 2.6
  },
  {
    "phase": "TASK",
    "condition": "Cond1",
    "trial_num": 56,
    "trial_length": 5,
    "click_num": 2,
    "RT": 825,
    "action": 1,
    "reward": 3.2
  },
  {
    "phase": "TASK",
    "condition": "Cond1",
    "trial_num": 56,
    "trial_length": 5,
    "click_num": 3,
    "RT": 957,
    "action": 1,
    "reward": 3
  },
  {
    "phase": "TASK",
    "condition": "Cond1",
    "trial_num": 56,
    "trial_length": 5,
    "click_num": 4,
    "RT": 1032,
    "action": 1,
    "reward": 2
  },
  {
    "phase": "TASK",
    "condition": "Cond1",
    "trial_num": 56,
    "trial_length": 5,
    "click_num": 5,
    "RT": 1266,
    "action": 0,
    "reward": 3.2
  },
  {
    "phase": "TASK",
    "condition": "Cond1",
    "trial_num": 57,
    "trial_length": 10,
    "click_num": 1,
    "RT": 812,
    "action": 1,
    "reward": 3.5
  },
  {
    "phase": "TASK",
    "condition": "Cond1",
    "trial_num": 57,
    "trial_length": 10,
    "click_num": 2,
    "RT": 753,
    "action": 1,
    "reward": 3.3
  },
  {
    "phase": "TASK",
    "condition": "Cond1",
    "trial_num": 57,
    "trial_length": 10,
    "click_num": 3,
    "RT": 551,
    "action": 1,
    "reward": 3.5
  },
  {
    "phase": "TASK",
    "condition": "Cond1",
    "trial_num": 57,
    "trial_length": 10,
    "click_num": 4,
    "RT": 832,
    "action": 1,
    "reward": 2.9
  },
  {
    "phase": "TASK",
    "condition": "Cond1",
    "trial_num": 57,
    "trial_length": 10,
    "click_num": 5,
    "RT": 674,
    "action": 1,
    "reward": 3.6
  },
  {
    "phase": "TASK",
    "condition": "Cond1",
    "trial_num": 57,
    "trial_length": 10,
    "click_num": 6,
    "RT": 1054,
    "action": 1,
    "reward": 3.7
  },
  {
    "phase": "TASK",
    "condition": "Cond1",
    "trial_num": 57,
    "trial_length": 10,
    "click_num": 7,
    "RT": 696,
    "action": 1,
    "reward": 3.2
  },
  {
    "phase": "TASK",
    "condition": "Cond1",
    "trial_num": 57,
    "trial_length": 10,
    "click_num": 8,
    "RT": 776,
    "action": 1,
    "reward": 4.2
  },
  {
    "phase": "TASK",
    "condition": "Cond1",
    "trial_num": 57,
    "trial_length": 10,
    "click_num": 9,
    "RT": 1176,
    "action": 0,
    "reward": 4.2
  },
  {
    "phase": "TASK",
    "condition": "Cond1",
    "trial_num": 57,
    "trial_length": 10,
    "click_num": 10,
    "RT": 640,
    "action": 0,
    "reward": 4.2
  },
  {
    "phase": "TASK",
    "condition": "Cond1",
    "trial_num": 58,
    "trial_length": 9,
    "click_num": 1,
    "RT": 1484,
    "action": 1,
    "reward": 2.7
  },
  {
    "phase": "TASK",
    "condition": "Cond1",
    "trial_num": 58,
    "trial_length": 9,
    "click_num": 2,
    "RT": 3031,
    "action": 1,
    "reward": 2.6
  },
  {
    "phase": "TASK",
    "condition": "Cond1",
    "trial_num": 58,
    "trial_length": 9,
    "click_num": 3,
    "RT": 954,
    "action": 1,
    "reward": 1.6
  },
  {
    "phase": "TASK",
    "condition": "Cond1",
    "trial_num": 58,
    "trial_length": 9,
    "click_num": 4,
    "RT": 696,
    "action": 1,
    "reward": 2.7
  },
  {
    "phase": "TASK",
    "condition": "Cond1",
    "trial_num": 58,
    "trial_length": 9,
    "click_num": 5,
    "RT": 749,
    "action": 1,
    "reward": 2.6
  },
  {
    "phase": "TASK",
    "condition": "Cond1",
    "trial_num": 58,
    "trial_length": 9,
    "click_num": 6,
    "RT": 725,
    "action": 1,
    "reward": 3.3
  },
  {
    "phase": "TASK",
    "condition": "Cond1",
    "trial_num": 58,
    "trial_length": 9,
    "click_num": 7,
    "RT": 1276,
    "action": 1,
    "reward": 2.8
  },
  {
    "phase": "TASK",
    "condition": "Cond1",
    "trial_num": 58,
    "trial_length": 9,
    "click_num": 8,
    "RT": 1105,
    "action": 1,
    "reward": 2.2
  },
  {
    "phase": "TASK",
    "condition": "Cond1",
    "trial_num": 58,
    "trial_length": 9,
    "click_num": 9,
    "RT": 1103,
    "action": 0,
    "reward": 3.3
  },
  {
    "phase": "TASK",
    "condition": "Cond1",
    "trial_num": 59,
    "trial_length": 7,
    "click_num": 1,
    "RT": 1622,
    "action": 1,
    "reward": 3.6
  },
  {
    "phase": "TASK",
    "condition": "Cond1",
    "trial_num": 59,
    "trial_length": 7,
    "click_num": 2,
    "RT": 959,
    "action": 1,
    "reward": 2.3
  },
  {
    "phase": "TASK",
    "condition": "Cond1",
    "trial_num": 59,
    "trial_length": 7,
    "click_num": 3,
    "RT": 656,
    "action": 1,
    "reward": 2.8
  },
  {
    "phase": "TASK",
    "condition": "Cond1",
    "trial_num": 59,
    "trial_length": 7,
    "click_num": 4,
    "RT": 756,
    "action": 1,
    "reward": 3.1
  },
  {
    "phase": "TASK",
    "condition": "Cond1",
    "trial_num": 59,
    "trial_length": 7,
    "click_num": 5,
    "RT": 1197,
    "action": 1,
    "reward": 3
  },
  {
    "phase": "TASK",
    "condition": "Cond1",
    "trial_num": 59,
    "trial_length": 7,
    "click_num": 6,
    "RT": 3922,
    "action": 1,
    "reward": 2.4
  },
  {
    "phase": "TASK",
    "condition": "Cond1",
    "trial_num": 59,
    "trial_length": 7,
    "click_num": 7,
    "RT": 830,
    "action": 0,
    "reward": 3.6
  },
  {
    "phase": "TASK",
    "condition": "Cond1",
    "trial_num": 60,
    "trial_length": 5,
    "click_num": 1,
    "RT": 1134,
    "action": 1,
    "reward": 1.8
  },
  {
    "phase": "TASK",
    "condition": "Cond1",
    "trial_num": 60,
    "trial_length": 5,
    "click_num": 2,
    "RT": 1096,
    "action": 1,
    "reward": 2.4
  },
  {
    "phase": "TASK",
    "condition": "Cond1",
    "trial_num": 60,
    "trial_length": 5,
    "click_num": 3,
    "RT": 680,
    "action": 1,
    "reward": 2.6
  },
  {
    "phase": "TASK",
    "condition": "Cond1",
    "trial_num": 60,
    "trial_length": 5,
    "click_num": 4,
    "RT": 720,
    "action": 1,
    "reward": 3.4
  },
  {
    "phase": "TASK",
    "condition": "Cond1",
    "trial_num": 60,
    "trial_length": 5,
    "click_num": 5,
    "RT": 1200,
    "action": 0,
    "reward": 3.4
  },
  {
    "phase": "TASK",
    "condition": "Cond1",
    "trial_num": 61,
    "trial_length": 10,
    "click_num": 1,
    "RT": 998,
    "action": 1,
    "reward": 3.1
  },
  {
    "phase": "TASK",
    "condition": "Cond1",
    "trial_num": 61,
    "trial_length": 10,
    "click_num": 2,
    "RT": 647,
    "action": 1,
    "reward": 2.6
  },
  {
    "phase": "TASK",
    "condition": "Cond1",
    "trial_num": 61,
    "trial_length": 10,
    "click_num": 3,
    "RT": 737,
    "action": 1,
    "reward": 3.4
  },
  {
    "phase": "TASK",
    "condition": "Cond1",
    "trial_num": 61,
    "trial_length": 10,
    "click_num": 4,
    "RT": 617,
    "action": 1,
    "reward": 3.6
  },
  {
    "phase": "TASK",
    "condition": "Cond1",
    "trial_num": 61,
    "trial_length": 10,
    "click_num": 5,
    "RT": 647,
    "action": 1,
    "reward": 2.9
  },
  {
    "phase": "TASK",
    "condition": "Cond1",
    "trial_num": 61,
    "trial_length": 10,
    "click_num": 6,
    "RT": 672,
    "action": 1,
    "reward": 2.8
  },
  {
    "phase": "TASK",
    "condition": "Cond1",
    "trial_num": 61,
    "trial_length": 10,
    "click_num": 7,
    "RT": 776,
    "action": 1,
    "reward": 3.8
  },
  {
    "phase": "TASK",
    "condition": "Cond1",
    "trial_num": 61,
    "trial_length": 10,
    "click_num": 8,
    "RT": 928,
    "action": 1,
    "reward": 3.8
  },
  {
    "phase": "TASK",
    "condition": "Cond1",
    "trial_num": 61,
    "trial_length": 10,
    "click_num": 9,
    "RT": 696,
    "action": 0,
    "reward": 3.8
  },
  {
    "phase": "TASK",
    "condition": "Cond1",
    "trial_num": 61,
    "trial_length": 10,
    "click_num": 10,
    "RT": 648,
    "action": 0,
    "reward": 3.8
  },
  {
    "phase": "TASK",
    "condition": "Cond1",
    "trial_num": 62,
    "trial_length": 6,
    "click_num": 1,
    "RT": 934,
    "action": 1,
    "reward": 3.2
  },
  {
    "phase": "TASK",
    "condition": "Cond1",
    "trial_num": 62,
    "trial_length": 6,
    "click_num": 2,
    "RT": 849,
    "action": 1,
    "reward": 2.9
  },
  {
    "phase": "TASK",
    "condition": "Cond1",
    "trial_num": 62,
    "trial_length": 6,
    "click_num": 3,
    "RT": 688,
    "action": 1,
    "reward": 2.7
  },
  {
    "phase": "TASK",
    "condition": "Cond1",
    "trial_num": 62,
    "trial_length": 6,
    "click_num": 4,
    "RT": 711,
    "action": 1,
    "reward": 3.2
  },
  {
    "phase": "TASK",
    "condition": "Cond1",
    "trial_num": 62,
    "trial_length": 6,
    "click_num": 5,
    "RT": 769,
    "action": 1,
    "reward": 3.7
  },
  {
    "phase": "TASK",
    "condition": "Cond1",
    "trial_num": 62,
    "trial_length": 6,
    "click_num": 6,
    "RT": 896,
    "action": 0,
    "reward": 3.7
  },
  {
    "phase": "TASK",
    "condition": "Cond1",
    "trial_num": 63,
    "trial_length": 6,
    "click_num": 1,
    "RT": 1095,
    "action": 1,
    "reward": 2
  },
  {
    "phase": "TASK",
    "condition": "Cond1",
    "trial_num": 63,
    "trial_length": 6,
    "click_num": 2,
    "RT": 840,
    "action": 1,
    "reward": 3.5
  },
  {
    "phase": "TASK",
    "condition": "Cond1",
    "trial_num": 63,
    "trial_length": 6,
    "click_num": 3,
    "RT": 648,
    "action": 1,
    "reward": 2.7
  },
  {
    "phase": "TASK",
    "condition": "Cond1",
    "trial_num": 63,
    "trial_length": 6,
    "click_num": 4,
    "RT": 752,
    "action": 1,
    "reward": 2.5
  },
  {
    "phase": "TASK",
    "condition": "Cond1",
    "trial_num": 63,
    "trial_length": 6,
    "click_num": 5,
    "RT": 801,
    "action": 1,
    "reward": 2.7
  },
  {
    "phase": "TASK",
    "condition": "Cond1",
    "trial_num": 63,
    "trial_length": 6,
    "click_num": 6,
    "RT": 703,
    "action": 0,
    "reward": 3.5
  },
  {
    "phase": "TASK",
    "condition": "Cond1",
    "trial_num": 64,
    "trial_length": 8,
    "click_num": 1,
    "RT": 725,
    "action": 1,
    "reward": 2.9
  },
  {
    "phase": "TASK",
    "condition": "Cond1",
    "trial_num": 64,
    "trial_length": 8,
    "click_num": 2,
    "RT": 655,
    "action": 1,
    "reward": 2.9
  },
  {
    "phase": "TASK",
    "condition": "Cond1",
    "trial_num": 64,
    "trial_length": 8,
    "click_num": 3,
    "RT": 1440,
    "action": 1,
    "reward": 3
  },
  {
    "phase": "TASK",
    "condition": "Cond1",
    "trial_num": 64,
    "trial_length": 8,
    "click_num": 4,
    "RT": 771,
    "action": 1,
    "reward": 2.4
  },
  {
    "phase": "TASK",
    "condition": "Cond1",
    "trial_num": 64,
    "trial_length": 8,
    "click_num": 5,
    "RT": 1015,
    "action": 1,
    "reward": 3.3
  },
  {
    "phase": "TASK",
    "condition": "Cond1",
    "trial_num": 64,
    "trial_length": 8,
    "click_num": 6,
    "RT": 838,
    "action": 1,
    "reward": 2
  },
  {
    "phase": "TASK",
    "condition": "Cond1",
    "trial_num": 64,
    "trial_length": 8,
    "click_num": 7,
    "RT": 809,
    "action": 1,
    "reward": 3.2
  },
  {
    "phase": "TASK",
    "condition": "Cond1",
    "trial_num": 64,
    "trial_length": 8,
    "click_num": 8,
    "RT": 712,
    "action": 0,
    "reward": 3.3
  },
  {
    "phase": "TASK",
    "condition": "Cond1",
    "trial_num": 65,
    "trial_length": 6,
    "click_num": 1,
    "RT": 955,
    "action": 1,
    "reward": 2.5
  },
  {
    "phase": "TASK",
    "condition": "Cond1",
    "trial_num": 65,
    "trial_length": 6,
    "click_num": 2,
    "RT": 683,
    "action": 1,
    "reward": 4.7
  },
  {
    "phase": "TASK",
    "condition": "Cond1",
    "trial_num": 65,
    "trial_length": 6,
    "click_num": 3,
    "RT": 2506,
    "action": 0,
    "reward": 4.7
  },
  {
    "phase": "TASK",
    "condition": "Cond1",
    "trial_num": 65,
    "trial_length": 6,
    "click_num": 4,
    "RT": 613,
    "action": 0,
    "reward": 4.7
  },
  {
    "phase": "TASK",
    "condition": "Cond1",
    "trial_num": 65,
    "trial_length": 6,
    "click_num": 5,
    "RT": 1455,
    "action": 0,
    "reward": 4.7
  },
  {
    "phase": "TASK",
    "condition": "Cond1",
    "trial_num": 65,
    "trial_length": 6,
    "click_num": 6,
    "RT": 787,
    "action": 0,
    "reward": 4.7
  },
  {
    "phase": "TASK",
    "condition": "Cond1",
    "trial_num": 66,
    "trial_length": 5,
    "click_num": 1,
    "RT": 1502,
    "action": 1,
    "reward": 2.8
  },
  {
    "phase": "TASK",
    "condition": "Cond1",
    "trial_num": 66,
    "trial_length": 5,
    "click_num": 2,
    "RT": 1520,
    "action": 1,
    "reward": 3.2
  },
  {
    "phase": "TASK",
    "condition": "Cond1",
    "trial_num": 66,
    "trial_length": 5,
    "click_num": 3,
    "RT": 711,
    "action": 1,
    "reward": 4.4
  },
  {
    "phase": "TASK",
    "condition": "Cond1",
    "trial_num": 66,
    "trial_length": 5,
    "click_num": 4,
    "RT": 1272,
    "action": 0,
    "reward": 4.4
  },
  {
    "phase": "TASK",
    "condition": "Cond1",
    "trial_num": 66,
    "trial_length": 5,
    "click_num": 5,
    "RT": 658,
    "action": 0,
    "reward": 4.4
  },
  {
    "phase": "TASK",
    "condition": "Cond1",
    "trial_num": 67,
    "trial_length": 6,
    "click_num": 1,
    "RT": 812,
    "action": 1,
    "reward": 2.7
  },
  {
    "phase": "TASK",
    "condition": "Cond1",
    "trial_num": 67,
    "trial_length": 6,
    "click_num": 2,
    "RT": 1033,
    "action": 1,
    "reward": 4
  },
  {
    "phase": "TASK",
    "condition": "Cond1",
    "trial_num": 67,
    "trial_length": 6,
    "click_num": 3,
    "RT": 1143,
    "action": 1,
    "reward": 3.4
  },
  {
    "phase": "TASK",
    "condition": "Cond1",
    "trial_num": 67,
    "trial_length": 6,
    "click_num": 4,
    "RT": 1328,
    "action": 1,
    "reward": 2.3
  },
  {
    "phase": "TASK",
    "condition": "Cond1",
    "trial_num": 67,
    "trial_length": 6,
    "click_num": 5,
    "RT": 792,
    "action": 0,
    "reward": 4
  },
  {
    "phase": "TASK",
    "condition": "Cond1",
    "trial_num": 67,
    "trial_length": 6,
    "click_num": 6,
    "RT": 673,
    "action": 0,
    "reward": 4
  },
  {
    "phase": "TASK",
    "condition": "Cond1",
    "trial_num": 68,
    "trial_length": 6,
    "click_num": 1,
    "RT": 808,
    "action": 1,
    "reward": 2.7
  },
  {
    "phase": "TASK",
    "condition": "Cond1",
    "trial_num": 68,
    "trial_length": 6,
    "click_num": 2,
    "RT": 935,
    "action": 1,
    "reward": 3.3
  },
  {
    "phase": "TASK",
    "condition": "Cond1",
    "trial_num": 68,
    "trial_length": 6,
    "click_num": 3,
    "RT": 1295,
    "action": 1,
    "reward": 2.2
  },
  {
    "phase": "TASK",
    "condition": "Cond1",
    "trial_num": 68,
    "trial_length": 6,
    "click_num": 4,
    "RT": 1068,
    "action": 1,
    "reward": 2.5
  },
  {
    "phase": "TASK",
    "condition": "Cond1",
    "trial_num": 68,
    "trial_length": 6,
    "click_num": 5,
    "RT": 989,
    "action": 1,
    "reward": 3.6
  },
  {
    "phase": "TASK",
    "condition": "Cond1",
    "trial_num": 68,
    "trial_length": 6,
    "click_num": 6,
    "RT": 768,
    "action": 0,
    "reward": 3.6
  },
  {
    "phase": "TASK",
    "condition": "Cond1",
    "trial_num": 69,
    "trial_length": 9,
    "click_num": 1,
    "RT": 1002,
    "action": 1,
    "reward": 2.4
  },
  {
    "phase": "TASK",
    "condition": "Cond1",
    "trial_num": 69,
    "trial_length": 9,
    "click_num": 2,
    "RT": 784,
    "action": 1,
    "reward": 3.4
  },
  {
    "phase": "TASK",
    "condition": "Cond1",
    "trial_num": 69,
    "trial_length": 9,
    "click_num": 3,
    "RT": 651,
    "action": 1,
    "reward": 3.1
  },
  {
    "phase": "TASK",
    "condition": "Cond1",
    "trial_num": 69,
    "trial_length": 9,
    "click_num": 4,
    "RT": 774,
    "action": 1,
    "reward": 2.9
  },
  {
    "phase": "TASK",
    "condition": "Cond1",
    "trial_num": 69,
    "trial_length": 9,
    "click_num": 5,
    "RT": 999,
    "action": 1,
    "reward": 2.8
  },
  {
    "phase": "TASK",
    "condition": "Cond1",
    "trial_num": 69,
    "trial_length": 9,
    "click_num": 6,
    "RT": 624,
    "action": 1,
    "reward": 2.6
  },
  {
    "phase": "TASK",
    "condition": "Cond1",
    "trial_num": 69,
    "trial_length": 9,
    "click_num": 7,
    "RT": 1528,
    "action": 1,
    "reward": 2
  },
  {
    "phase": "TASK",
    "condition": "Cond1",
    "trial_num": 69,
    "trial_length": 9,
    "click_num": 8,
    "RT": 721,
    "action": 1,
    "reward": 3.3
  },
  {
    "phase": "TASK",
    "condition": "Cond1",
    "trial_num": 69,
    "trial_length": 9,
    "click_num": 9,
    "RT": 798,
    "action": 0,
    "reward": 3.4
  },
  {
    "phase": "TASK",
    "condition": "Cond1",
    "trial_num": 70,
    "trial_length": 6,
    "click_num": 1,
    "RT": 909,
    "action": 1,
    "reward": 2.9
  },
  {
    "phase": "TASK",
    "condition": "Cond1",
    "trial_num": 70,
    "trial_length": 6,
    "click_num": 2,
    "RT": 744,
    "action": 1,
    "reward": 3
  },
  {
    "phase": "TASK",
    "condition": "Cond1",
    "trial_num": 70,
    "trial_length": 6,
    "click_num": 3,
    "RT": 697,
    "action": 1,
    "reward": 2.3
  },
  {
    "phase": "TASK",
    "condition": "Cond1",
    "trial_num": 70,
    "trial_length": 6,
    "click_num": 4,
    "RT": 734,
    "action": 1,
    "reward": 2.8
  },
  {
    "phase": "TASK",
    "condition": "Cond1",
    "trial_num": 70,
    "trial_length": 6,
    "click_num": 5,
    "RT": 785,
    "action": 1,
    "reward": 2.8
  },
  {
    "phase": "TASK",
    "condition": "Cond1",
    "trial_num": 70,
    "trial_length": 6,
    "click_num": 6,
    "RT": 896,
    "action": 0,
    "reward": 3
  },
  {
    "phase": "TASK",
    "condition": "Cond1",
    "trial_num": 71,
    "trial_length": 8,
    "click_num": 1,
    "RT": 1058,
    "action": 1,
    "reward": 3.4
  },
  {
    "phase": "TASK",
    "condition": "Cond1",
    "trial_num": 71,
    "trial_length": 8,
    "click_num": 2,
    "RT": 688,
    "action": 1,
    "reward": 2.9
  },
  {
    "phase": "TASK",
    "condition": "Cond1",
    "trial_num": 71,
    "trial_length": 8,
    "click_num": 3,
    "RT": 640,
    "action": 1,
    "reward": 2.6
  },
  {
    "phase": "TASK",
    "condition": "Cond1",
    "trial_num": 71,
    "trial_length": 8,
    "click_num": 4,
    "RT": 672,
    "action": 1,
    "reward": 2.5
  },
  {
    "phase": "TASK",
    "condition": "Cond1",
    "trial_num": 71,
    "trial_length": 8,
    "click_num": 5,
    "RT": 680,
    "action": 1,
    "reward": 3.6
  },
  {
    "phase": "TASK",
    "condition": "Cond1",
    "trial_num": 71,
    "trial_length": 8,
    "click_num": 6,
    "RT": 713,
    "action": 1,
    "reward": 2.9
  },
  {
    "phase": "TASK",
    "condition": "Cond1",
    "trial_num": 71,
    "trial_length": 8,
    "click_num": 7,
    "RT": 759,
    "action": 1,
    "reward": 2.8
  },
  {
    "phase": "TASK",
    "condition": "Cond1",
    "trial_num": 71,
    "trial_length": 8,
    "click_num": 8,
    "RT": 808,
    "action": 0,
    "reward": 3.6
  },
  {
    "phase": "TASK",
    "condition": "Cond1",
    "trial_num": 72,
    "trial_length": 10,
    "click_num": 1,
    "RT": 1000,
    "action": 1,
    "reward": 3.4
  },
  {
    "phase": "TASK",
    "condition": "Cond1",
    "trial_num": 72,
    "trial_length": 10,
    "click_num": 2,
    "RT": 591,
    "action": 1,
    "reward": 3.5
  },
  {
    "phase": "TASK",
    "condition": "Cond1",
    "trial_num": 72,
    "trial_length": 10,
    "click_num": 3,
    "RT": 1328,
    "action": 1,
    "reward": 2.1
  },
  {
    "phase": "TASK",
    "condition": "Cond1",
    "trial_num": 72,
    "trial_length": 10,
    "click_num": 4,
    "RT": 633,
    "action": 1,
    "reward": 3
  },
  {
    "phase": "TASK",
    "condition": "Cond1",
    "trial_num": 72,
    "trial_length": 10,
    "click_num": 5,
    "RT": 600,
    "action": 1,
    "reward": 3.3
  },
  {
    "phase": "TASK",
    "condition": "Cond1",
    "trial_num": 72,
    "trial_length": 10,
    "click_num": 6,
    "RT": 584,
    "action": 1,
    "reward": 3
  },
  {
    "phase": "TASK",
    "condition": "Cond1",
    "trial_num": 72,
    "trial_length": 10,
    "click_num": 7,
    "RT": 666,
    "action": 1,
    "reward": 3.3
  },
  {
    "phase": "TASK",
    "condition": "Cond1",
    "trial_num": 72,
    "trial_length": 10,
    "click_num": 8,
    "RT": 982,
    "action": 1,
    "reward": 3.2
  },
  {
    "phase": "TASK",
    "condition": "Cond1",
    "trial_num": 72,
    "trial_length": 10,
    "click_num": 9,
    "RT": 759,
    "action": 1,
    "reward": 3.4
  },
  {
    "phase": "TASK",
    "condition": "Cond1",
    "trial_num": 72,
    "trial_length": 10,
    "click_num": 10,
    "RT": 737,
    "action": 0,
    "reward": 3.5
  },
  {
    "phase": "TASK",
    "condition": "Cond1",
    "trial_num": 73,
    "trial_length": 9,
    "click_num": 1,
    "RT": 965,
    "action": 1,
    "reward": 4
  },
  {
    "phase": "TASK",
    "condition": "Cond1",
    "trial_num": 73,
    "trial_length": 9,
    "click_num": 2,
    "RT": 1832,
    "action": 0,
    "reward": 4
  },
  {
    "phase": "TASK",
    "condition": "Cond1",
    "trial_num": 73,
    "trial_length": 9,
    "click_num": 3,
    "RT": 608,
    "action": 0,
    "reward": 4
  },
  {
    "phase": "TASK",
    "condition": "Cond1",
    "trial_num": 73,
    "trial_length": 9,
    "click_num": 4,
    "RT": 681,
    "action": 0,
    "reward": 4
  },
  {
    "phase": "TASK",
    "condition": "Cond1",
    "trial_num": 73,
    "trial_length": 9,
    "click_num": 5,
    "RT": 674,
    "action": 0,
    "reward": 4
  },
  {
    "phase": "TASK",
    "condition": "Cond1",
    "trial_num": 73,
    "trial_length": 9,
    "click_num": 6,
    "RT": 1454,
    "action": 0,
    "reward": 4
  },
  {
    "phase": "TASK",
    "condition": "Cond1",
    "trial_num": 73,
    "trial_length": 9,
    "click_num": 7,
    "RT": 1016,
    "action": 0,
    "reward": 4
  },
  {
    "phase": "TASK",
    "condition": "Cond1",
    "trial_num": 73,
    "trial_length": 9,
    "click_num": 8,
    "RT": 648,
    "action": 0,
    "reward": 4
  },
  {
    "phase": "TASK",
    "condition": "Cond1",
    "trial_num": 73,
    "trial_length": 9,
    "click_num": 9,
    "RT": 663,
    "action": 0,
    "reward": 4
  },
  {
    "phase": "TASK",
    "condition": "Cond1",
    "trial_num": 74,
    "trial_length": 5,
    "click_num": 1,
    "RT": 1093,
    "action": 1,
    "reward": 2.8
  },
  {
    "phase": "TASK",
    "condition": "Cond1",
    "trial_num": 74,
    "trial_length": 5,
    "click_num": 2,
    "RT": 1088,
    "action": 1,
    "reward": 3.7
  },
  {
    "phase": "TASK",
    "condition": "Cond1",
    "trial_num": 74,
    "trial_length": 5,
    "click_num": 3,
    "RT": 2000,
    "action": 0,
    "reward": 3.7
  },
  {
    "phase": "TASK",
    "condition": "Cond1",
    "trial_num": 74,
    "trial_length": 5,
    "click_num": 4,
    "RT": 656,
    "action": 0,
    "reward": 3.7
  },
  {
    "phase": "TASK",
    "condition": "Cond1",
    "trial_num": 74,
    "trial_length": 5,
    "click_num": 5,
    "RT": 634,
    "action": 0,
    "reward": 3.7
  },
  {
    "phase": "TASK",
    "condition": "Cond1",
    "trial_num": 75,
    "trial_length": 8,
    "click_num": 1,
    "RT": 918,
    "action": 1,
    "reward": 4
  },
  {
    "phase": "TASK",
    "condition": "Cond1",
    "trial_num": 75,
    "trial_length": 8,
    "click_num": 2,
    "RT": 1727,
    "action": 0,
    "reward": 4
  },
  {
    "phase": "TASK",
    "condition": "Cond1",
    "trial_num": 75,
    "trial_length": 8,
    "click_num": 3,
    "RT": 600,
    "action": 0,
    "reward": 4
  },
  {
    "phase": "TASK",
    "condition": "Cond1",
    "trial_num": 75,
    "trial_length": 8,
    "click_num": 4,
    "RT": 711,
    "action": 0,
    "reward": 4
  },
  {
    "phase": "TASK",
    "condition": "Cond1",
    "trial_num": 75,
    "trial_length": 8,
    "click_num": 5,
    "RT": 593,
    "action": 0,
    "reward": 4
  },
  {
    "phase": "TASK",
    "condition": "Cond1",
    "trial_num": 75,
    "trial_length": 8,
    "click_num": 6,
    "RT": 847,
    "action": 0,
    "reward": 4
  },
  {
    "phase": "TASK",
    "condition": "Cond1",
    "trial_num": 75,
    "trial_length": 8,
    "click_num": 7,
    "RT": 617,
    "action": 0,
    "reward": 4
  },
  {
    "phase": "TASK",
    "condition": "Cond1",
    "trial_num": 75,
    "trial_length": 8,
    "click_num": 8,
    "RT": 856,
    "action": 0,
    "reward": 4
  },
  {
    "phase": "TASK",
    "condition": "Cond1",
    "trial_num": 76,
    "trial_length": 5,
    "click_num": 1,
    "RT": 845,
    "action": 1,
    "reward": 2.4
  },
  {
    "phase": "TASK",
    "condition": "Cond1",
    "trial_num": 76,
    "trial_length": 5,
    "click_num": 2,
    "RT": 1048,
    "action": 1,
    "reward": 3.1
  },
  {
    "phase": "TASK",
    "condition": "Cond1",
    "trial_num": 76,
    "trial_length": 5,
    "click_num": 3,
    "RT": 715,
    "action": 1,
    "reward": 3.2
  },
  {
    "phase": "TASK",
    "condition": "Cond1",
    "trial_num": 76,
    "trial_length": 5,
    "click_num": 4,
    "RT": 837,
    "action": 1,
    "reward": 3.5
  },
  {
    "phase": "TASK",
    "condition": "Cond1",
    "trial_num": 76,
    "trial_length": 5,
    "click_num": 5,
    "RT": 800,
    "action": 0,
    "reward": 3.5
  },
  {
    "phase": "TASK",
    "condition": "Cond1",
    "trial_num": 77,
    "trial_length": 7,
    "click_num": 1,
    "RT": 828,
    "action": 1,
    "reward": 2.7
  },
  {
    "phase": "TASK",
    "condition": "Cond1",
    "trial_num": 77,
    "trial_length": 7,
    "click_num": 2,
    "RT": 583,
    "action": 1,
    "reward": 2.1
  },
  {
    "phase": "TASK",
    "condition": "Cond1",
    "trial_num": 77,
    "trial_length": 7,
    "click_num": 3,
    "RT": 697,
    "action": 1,
    "reward": 2.9
  },
  {
    "phase": "TASK",
    "condition": "Cond1",
    "trial_num": 77,
    "trial_length": 7,
    "click_num": 4,
    "RT": 960,
    "action": 1,
    "reward": 3
  },
  {
    "phase": "TASK",
    "condition": "Cond1",
    "trial_num": 77,
    "trial_length": 7,
    "click_num": 5,
    "RT": 792,
    "action": 1,
    "reward": 3.9
  },
  {
    "phase": "TASK",
    "condition": "Cond1",
    "trial_num": 77,
    "trial_length": 7,
    "click_num": 6,
    "RT": 1247,
    "action": 0,
    "reward": 3.9
  },
  {
    "phase": "TASK",
    "condition": "Cond1",
    "trial_num": 77,
    "trial_length": 7,
    "click_num": 7,
    "RT": 591,
    "action": 0,
    "reward": 3.9
  },
  {
    "phase": "TASK",
    "condition": "Cond1",
    "trial_num": 78,
    "trial_length": 9,
    "click_num": 1,
    "RT": 1326,
    "action": 1,
    "reward": 3.5
  },
  {
    "phase": "TASK",
    "condition": "Cond1",
    "trial_num": 78,
    "trial_length": 9,
    "click_num": 2,
    "RT": 1587,
    "action": 1,
    "reward": 4
  },
  {
    "phase": "TASK",
    "condition": "Cond1",
    "trial_num": 78,
    "trial_length": 9,
    "click_num": 3,
    "RT": 1256,
    "action": 0,
    "reward": 4
  },
  {
    "phase": "TASK",
    "condition": "Cond1",
    "trial_num": 78,
    "trial_length": 9,
    "click_num": 4,
    "RT": 495,
    "action": 0,
    "reward": 4
  },
  {
    "phase": "TASK",
    "condition": "Cond1",
    "trial_num": 78,
    "trial_length": 9,
    "click_num": 5,
    "RT": 488,
    "action": 0,
    "reward": 4
  },
  {
    "phase": "TASK",
    "condition": "Cond1",
    "trial_num": 78,
    "trial_length": 9,
    "click_num": 6,
    "RT": 477,
    "action": 0,
    "reward": 4
  },
  {
    "phase": "TASK",
    "condition": "Cond1",
    "trial_num": 78,
    "trial_length": 9,
    "click_num": 7,
    "RT": 989,
    "action": 0,
    "reward": 4
  },
  {
    "phase": "TASK",
    "condition": "Cond1",
    "trial_num": 78,
    "trial_length": 9,
    "click_num": 8,
    "RT": 590,
    "action": 0,
    "reward": 4
  },
  {
    "phase": "TASK",
    "condition": "Cond1",
    "trial_num": 78,
    "trial_length": 9,
    "click_num": 9,
    "RT": 696,
    "action": 0,
    "reward": 4
  },
  {
    "phase": "TASK",
    "condition": "Cond1",
    "trial_num": 79,
    "trial_length": 8,
    "click_num": 1,
    "RT": 746,
    "action": 1,
    "reward": 2.4
  },
  {
    "phase": "TASK",
    "condition": "Cond1",
    "trial_num": 79,
    "trial_length": 8,
    "click_num": 2,
    "RT": 912,
    "action": 1,
    "reward": 3.3
  },
  {
    "phase": "TASK",
    "condition": "Cond1",
    "trial_num": 79,
    "trial_length": 8,
    "click_num": 3,
    "RT": 720,
    "action": 1,
    "reward": 2.4
  },
  {
    "phase": "TASK",
    "condition": "Cond1",
    "trial_num": 79,
    "trial_length": 8,
    "click_num": 4,
    "RT": 808,
    "action": 1,
    "reward": 2.6
  },
  {
    "phase": "TASK",
    "condition": "Cond1",
    "trial_num": 79,
    "trial_length": 8,
    "click_num": 5,
    "RT": 600,
    "action": 1,
    "reward": 3.8
  },
  {
    "phase": "TASK",
    "condition": "Cond1",
    "trial_num": 79,
    "trial_length": 8,
    "click_num": 6,
    "RT": 1151,
    "action": 0,
    "reward": 3.8
  },
  {
    "phase": "TASK",
    "condition": "Cond1",
    "trial_num": 79,
    "trial_length": 8,
    "click_num": 7,
    "RT": 480,
    "action": 0,
    "reward": 3.8
  },
  {
    "phase": "TASK",
    "condition": "Cond1",
    "trial_num": 79,
    "trial_length": 8,
    "click_num": 8,
    "RT": 496,
    "action": 0,
    "reward": 3.8
  },
  {
    "phase": "TASK",
    "condition": "Cond1",
    "trial_num": 80,
    "trial_length": 10,
    "click_num": 1,
    "RT": 760,
    "action": 1,
    "reward": 3.4
  },
  {
    "phase": "TASK",
    "condition": "Cond1",
    "trial_num": 80,
    "trial_length": 10,
    "click_num": 2,
    "RT": 728,
    "action": 1,
    "reward": 3.5
  },
  {
    "phase": "TASK",
    "condition": "Cond1",
    "trial_num": 80,
    "trial_length": 10,
    "click_num": 3,
    "RT": 656,
    "action": 1,
    "reward": 2.7
  },
  {
    "phase": "TASK",
    "condition": "Cond1",
    "trial_num": 80,
    "trial_length": 10,
    "click_num": 4,
    "RT": 599,
    "action": 1,
    "reward": 2.9
  },
  {
    "phase": "TASK",
    "condition": "Cond1",
    "trial_num": 80,
    "trial_length": 10,
    "click_num": 5,
    "RT": 611,
    "action": 1,
    "reward": 3.5
  },
  {
    "phase": "TASK",
    "condition": "Cond1",
    "trial_num": 80,
    "trial_length": 10,
    "click_num": 6,
    "RT": 622,
    "action": 1,
    "reward": 2.8
  },
  {
    "phase": "TASK",
    "condition": "Cond1",
    "trial_num": 80,
    "trial_length": 10,
    "click_num": 7,
    "RT": 616,
    "action": 1,
    "reward": 2.9
  },
  {
    "phase": "TASK",
    "condition": "Cond1",
    "trial_num": 80,
    "trial_length": 10,
    "click_num": 8,
    "RT": 616,
    "action": 1,
    "reward": 3.5
  },
  {
    "phase": "TASK",
    "condition": "Cond1",
    "trial_num": 80,
    "trial_length": 10,
    "click_num": 9,
    "RT": 640,
    "action": 1,
    "reward": 2
  },
  {
    "phase": "TASK",
    "condition": "Cond1",
    "trial_num": 80,
    "trial_length": 10,
    "click_num": 10,
    "RT": 799,
    "action": 0,
    "reward": 3.5
  },
  {
    "phase": "TASK",
    "condition": "Cond1",
    "trial_num": 81,
